submission_id,QUD,RT,age,audio,comments,congruency,correctness,education,endTime,expected,experiment_id,gender,image_category,image_instance,key1,key2,key_pressed,languages,match,number_of_image,p,picture,q,question,sound_category,sound_instance,sound_type,startDate,startTime,timeSpent,trial_name,trial_number
1649,,3761,21,stimuli/sounds/dog_sound_chihuahua.mp3,,congruent,correct,Graduated High School,1595591194987,yes,156,female,dog,chihuahua,q,p,q,german and turkish,match,1,no,stimuli/images/dog_chihuahua_1.jpg,yes,,dog,chihuahua,sound,Fri Jul 24 2020 13:36:44 GMT+0200 (Mitteleuropäische Sommerzeit),1595590604909,9.834633333333333,training,1
1649,,4481,21,stimuli/sounds/bird_label_female.mp3,,-,incorrect,Graduated High School,1595591194987,yes,156,female,bird,seagull,q,p,p,german and turkish,match,1,no,stimuli/images/bird_seagull_1.jpg,yes,,bird,female,label,Fri Jul 24 2020 13:36:44 GMT+0200 (Mitteleuropäische Sommerzeit),1595590604909,9.834633333333333,training,2
1649,,4209,21,stimuli/sounds/dog_sound_rottweiler.mp3,,incongruent,correct,Graduated High School,1595591194987,yes,156,female,dog,chihuahua,q,p,q,german and turkish,match,1,no,stimuli/images/dog_chihuahua_1.jpg,yes,,dog,rottweiler,sound,Fri Jul 24 2020 13:36:44 GMT+0200 (Mitteleuropäische Sommerzeit),1595590604909,9.834633333333333,training,3
1649,,4762,21,stimuli/sounds/phone_sound_rotary.mp3,,-,correct,Graduated High School,1595591194987,no,156,female,bird,robin,q,p,p,german and turkish,mismatch,2,no,stimuli/images/bird_robin_2.jpg,yes,,phone,rotary,sound,Fri Jul 24 2020 13:36:44 GMT+0200 (Mitteleuropäische Sommerzeit),1595590604909,9.834633333333333,training,4
1649,,3982,21,stimuli/sounds/typing_label_male.mp3,,-,correct,Graduated High School,1595591194987,no,156,female,car,ford,q,p,p,german and turkish,mismatch,2,no,stimuli/images/car_ford_2.jpg,yes,,typing,male,label,Fri Jul 24 2020 13:36:44 GMT+0200 (Mitteleuropäische Sommerzeit),1595590604909,9.834633333333333,training,5
1649,,4303,21,stimuli/sounds/car_sound_v8.mp3,,-,correct,Graduated High School,1595591194987,no,156,female,phone,smartphone,q,p,p,german and turkish,mismatch,2,no,stimuli/images/phone_smartphone_2.jpg,yes,,car,v8,sound,Fri Jul 24 2020 13:36:44 GMT+0200 (Mitteleuropäische Sommerzeit),1595590604909,9.834633333333333,training,6
1649,,3195,21,stimuli/sounds/phone_label_female.mp3,,-,correct,Graduated High School,1595591194987,no,156,female,car,ford,q,p,p,german and turkish,mismatch,2,no,stimuli/images/car_ford_2.jpg,yes,,phone,female,label,Fri Jul 24 2020 13:36:44 GMT+0200 (Mitteleuropäische Sommerzeit),1595590604909,9.834633333333333,main,1
1649,,4013,21,stimuli/sounds/car_sound_v8.mp3,,-,incorrect,Graduated High School,1595591194987,no,156,female,dog,rottweiler,q,p,q,german and turkish,mismatch,1,no,stimuli/images/dog_rottweiler_1.jpg,yes,,car,v8,sound,Fri Jul 24 2020 13:36:44 GMT+0200 (Mitteleuropäische Sommerzeit),1595590604909,9.834633333333333,main,2
1649,,3168,21,stimuli/sounds/typing_sound_keyboard.mp3,,-,correct,Graduated High School,1595591194987,no,156,female,instrument,violin,q,p,p,german and turkish,mismatch,1,no,stimuli/images/instrument_violin_1.jpg,yes,,typing,keyboard,sound,Fri Jul 24 2020 13:36:44 GMT+0200 (Mitteleuropäische Sommerzeit),1595590604909,9.834633333333333,main,3
1649,,3237,21,stimuli/sounds/car_sound_v8.mp3,,-,correct,Graduated High School,1595591194987,no,156,female,bird,robin,q,p,p,german and turkish,mismatch,2,no,stimuli/images/bird_robin_2.jpg,yes,,car,v8,sound,Fri Jul 24 2020 13:36:44 GMT+0200 (Mitteleuropäische Sommerzeit),1595590604909,9.834633333333333,main,4
1649,,3255,21,stimuli/sounds/bird_sound_seagull.mp3,,congruent,correct,Graduated High School,1595591194987,yes,156,female,bird,seagull,q,p,q,german and turkish,match,2,no,stimuli/images/bird_seagull_2.jpg,yes,,bird,seagull,sound,Fri Jul 24 2020 13:36:44 GMT+0200 (Mitteleuropäische Sommerzeit),1595590604909,9.834633333333333,main,5
1649,,4112,21,stimuli/sounds/typing_label_male.mp3,,-,correct,Graduated High School,1595591194987,yes,156,female,typing,keyboard,q,p,q,german and turkish,match,2,no,stimuli/images/typing_keyboard_2.jpg,yes,,typing,male,label,Fri Jul 24 2020 13:36:44 GMT+0200 (Mitteleuropäische Sommerzeit),1595590604909,9.834633333333333,main,6
1649,,2970,21,stimuli/sounds/instrument_label_female.mp3,,-,correct,Graduated High School,1595591194987,yes,156,female,instrument,violin,q,p,q,german and turkish,match,1,no,stimuli/images/instrument_violin_1.jpg,yes,,instrument,female,label,Fri Jul 24 2020 13:36:44 GMT+0200 (Mitteleuropäische Sommerzeit),1595590604909,9.834633333333333,main,7
1649,,3036,21,stimuli/sounds/car_label_female.mp3,,-,correct,Graduated High School,1595591194987,no,156,female,dog,rottweiler,q,p,p,german and turkish,mismatch,1,no,stimuli/images/dog_rottweiler_1.jpg,yes,,car,female,label,Fri Jul 24 2020 13:36:44 GMT+0200 (Mitteleuropäische Sommerzeit),1595590604909,9.834633333333333,main,8
1649,,3079,21,stimuli/sounds/phone_label_female.mp3,,-,correct,Graduated High School,1595591194987,no,156,female,typing,keyboard,q,p,p,german and turkish,mismatch,1,no,stimuli/images/typing_keyboard_1.jpg,yes,,phone,female,label,Fri Jul 24 2020 13:36:44 GMT+0200 (Mitteleuropäische Sommerzeit),1595590604909,9.834633333333333,main,9
1649,,3291,21,stimuli/sounds/dog_label_male.mp3,,-,correct,Graduated High School,1595591194987,no,156,female,typing,typewriter,q,p,p,german and turkish,mismatch,1,no,stimuli/images/typing_typewriter_1.jpg,yes,,dog,male,label,Fri Jul 24 2020 13:36:44 GMT+0200 (Mitteleuropäische Sommerzeit),1595590604909,9.834633333333333,main,10
1649,,2812,21,stimuli/sounds/dog_sound_chihuahua.mp3,,-,correct,Graduated High School,1595591194987,no,156,female,bird,seagull,q,p,p,german and turkish,mismatch,1,no,stimuli/images/bird_seagull_1.jpg,yes,,dog,chihuahua,sound,Fri Jul 24 2020 13:36:44 GMT+0200 (Mitteleuropäische Sommerzeit),1595590604909,9.834633333333333,main,11
1649,,2806,21,stimuli/sounds/dog_label_female.mp3,,-,correct,Graduated High School,1595591194987,yes,156,female,dog,chihuahua,q,p,q,german and turkish,match,1,no,stimuli/images/dog_chihuahua_1.jpg,yes,,dog,female,label,Fri Jul 24 2020 13:36:44 GMT+0200 (Mitteleuropäische Sommerzeit),1595590604909,9.834633333333333,main,12
1649,,2970,21,stimuli/sounds/instrument_label_male.mp3,,-,correct,Graduated High School,1595591194987,no,156,female,phone,smartphone,q,p,p,german and turkish,mismatch,1,no,stimuli/images/phone_smartphone_1.jpg,yes,,instrument,male,label,Fri Jul 24 2020 13:36:44 GMT+0200 (Mitteleuropäische Sommerzeit),1595590604909,9.834633333333333,main,13
1649,,2859,21,stimuli/sounds/car_label_female.mp3,,-,correct,Graduated High School,1595591194987,yes,156,female,car,v8,q,p,q,german and turkish,match,1,no,stimuli/images/car_v8_1.jpg,yes,,car,female,label,Fri Jul 24 2020 13:36:44 GMT+0200 (Mitteleuropäische Sommerzeit),1595590604909,9.834633333333333,main,14
1649,,3576,21,stimuli/sounds/typing_sound_keyboard.mp3,,-,correct,Graduated High School,1595591194987,no,156,female,instrument,cello,q,p,p,german and turkish,mismatch,2,no,stimuli/images/instrument_cello_2.jpg,yes,,typing,keyboard,sound,Fri Jul 24 2020 13:36:44 GMT+0200 (Mitteleuropäische Sommerzeit),1595590604909,9.834633333333333,main,15
1649,,3162,21,stimuli/sounds/instrument_label_female.mp3,,-,correct,Graduated High School,1595591194987,no,156,female,dog,rottweiler,q,p,p,german and turkish,mismatch,2,no,stimuli/images/dog_rottweiler_2.jpg,yes,,instrument,female,label,Fri Jul 24 2020 13:36:44 GMT+0200 (Mitteleuropäische Sommerzeit),1595590604909,9.834633333333333,main,16
1649,,3302,21,stimuli/sounds/car_sound_ford.mp3,,congruent,correct,Graduated High School,1595591194987,yes,156,female,car,ford,q,p,q,german and turkish,match,2,no,stimuli/images/car_ford_2.jpg,yes,,car,ford,sound,Fri Jul 24 2020 13:36:44 GMT+0200 (Mitteleuropäische Sommerzeit),1595590604909,9.834633333333333,main,17
1649,,2712,21,stimuli/sounds/instrument_sound_violin.mp3,,-,correct,Graduated High School,1595591194987,no,156,female,dog,chihuahua,q,p,p,german and turkish,mismatch,1,no,stimuli/images/dog_chihuahua_1.jpg,yes,,instrument,violin,sound,Fri Jul 24 2020 13:36:44 GMT+0200 (Mitteleuropäische Sommerzeit),1595590604909,9.834633333333333,main,18
1649,,2970,21,stimuli/sounds/dog_sound_chihuahua.mp3,,incongruent,correct,Graduated High School,1595591194987,yes,156,female,dog,rottweiler,q,p,q,german and turkish,match,1,no,stimuli/images/dog_rottweiler_1.jpg,yes,,dog,chihuahua,sound,Fri Jul 24 2020 13:36:44 GMT+0200 (Mitteleuropäische Sommerzeit),1595590604909,9.834633333333333,main,19
1649,,3578,21,stimuli/sounds/instrument_sound_cello.mp3,,incongruent,correct,Graduated High School,1595591194987,yes,156,female,instrument,violin,q,p,q,german and turkish,match,2,no,stimuli/images/instrument_violin_2.jpg,yes,,instrument,cello,sound,Fri Jul 24 2020 13:36:44 GMT+0200 (Mitteleuropäische Sommerzeit),1595590604909,9.834633333333333,main,20
1649,,3106,21,stimuli/sounds/typing_sound_keyboard.mp3,,congruent,correct,Graduated High School,1595591194987,yes,156,female,typing,keyboard,q,p,q,german and turkish,match,1,no,stimuli/images/typing_keyboard_1.jpg,yes,,typing,keyboard,sound,Fri Jul 24 2020 13:36:44 GMT+0200 (Mitteleuropäische Sommerzeit),1595590604909,9.834633333333333,main,21
1649,,2999,21,stimuli/sounds/bird_label_female.mp3,,-,correct,Graduated High School,1595591194987,yes,156,female,bird,seagull,q,p,q,german and turkish,match,1,no,stimuli/images/bird_seagull_1.jpg,yes,,bird,female,label,Fri Jul 24 2020 13:36:44 GMT+0200 (Mitteleuropäische Sommerzeit),1595590604909,9.834633333333333,main,22
1649,,2829,21,stimuli/sounds/bird_sound_robin.mp3,,-,correct,Graduated High School,1595591194987,no,156,female,car,v8,q,p,p,german and turkish,mismatch,1,no,stimuli/images/car_v8_1.jpg,yes,,bird,robin,sound,Fri Jul 24 2020 13:36:44 GMT+0200 (Mitteleuropäische Sommerzeit),1595590604909,9.834633333333333,main,23
1649,,2838,21,stimuli/sounds/instrument_label_male.mp3,,-,correct,Graduated High School,1595591194987,no,156,female,bird,seagull,q,p,p,german and turkish,mismatch,1,no,stimuli/images/bird_seagull_1.jpg,yes,,instrument,male,label,Fri Jul 24 2020 13:36:44 GMT+0200 (Mitteleuropäische Sommerzeit),1595590604909,9.834633333333333,main,24
1649,,2704,21,stimuli/sounds/dog_sound_chihuahua.mp3,,incongruent,correct,Graduated High School,1595591194987,yes,156,female,dog,rottweiler,q,p,q,german and turkish,match,2,no,stimuli/images/dog_rottweiler_2.jpg,yes,,dog,chihuahua,sound,Fri Jul 24 2020 13:36:44 GMT+0200 (Mitteleuropäische Sommerzeit),1595590604909,9.834633333333333,main,25
1649,,3653,21,stimuli/sounds/instrument_sound_cello.mp3,,congruent,correct,Graduated High School,1595591194987,yes,156,female,instrument,cello,q,p,q,german and turkish,match,1,no,stimuli/images/instrument_cello_1.jpg,yes,,instrument,cello,sound,Fri Jul 24 2020 13:36:44 GMT+0200 (Mitteleuropäische Sommerzeit),1595590604909,9.834633333333333,main,26
1649,,2838,21,stimuli/sounds/instrument_sound_violin.mp3,,incongruent,correct,Graduated High School,1595591194987,yes,156,female,instrument,cello,q,p,q,german and turkish,match,1,no,stimuli/images/instrument_cello_1.jpg,yes,,instrument,violin,sound,Fri Jul 24 2020 13:36:44 GMT+0200 (Mitteleuropäische Sommerzeit),1595590604909,9.834633333333333,main,27
1649,,3457,21,stimuli/sounds/bird_label_female.mp3,,-,correct,Graduated High School,1595591194987,no,156,female,dog,chihuahua,q,p,p,german and turkish,mismatch,2,no,stimuli/images/dog_chihuahua_2.jpg,yes,,bird,female,label,Fri Jul 24 2020 13:36:44 GMT+0200 (Mitteleuropäische Sommerzeit),1595590604909,9.834633333333333,main,28
1649,,3019,21,stimuli/sounds/bird_sound_seagull.mp3,,-,correct,Graduated High School,1595591194987,no,156,female,instrument,violin,q,p,p,german and turkish,mismatch,2,no,stimuli/images/instrument_violin_2.jpg,yes,,bird,seagull,sound,Fri Jul 24 2020 13:36:44 GMT+0200 (Mitteleuropäische Sommerzeit),1595590604909,9.834633333333333,main,29
1649,,2836,21,stimuli/sounds/instrument_label_female.mp3,,-,correct,Graduated High School,1595591194987,yes,156,female,instrument,cello,q,p,q,german and turkish,match,1,no,stimuli/images/instrument_cello_1.jpg,yes,,instrument,female,label,Fri Jul 24 2020 13:36:44 GMT+0200 (Mitteleuropäische Sommerzeit),1595590604909,9.834633333333333,main,30
1649,,2869,21,stimuli/sounds/phone_label_female.mp3,,-,correct,Graduated High School,1595591194987,yes,156,female,phone,smartphone,q,p,q,german and turkish,match,2,no,stimuli/images/phone_smartphone_2.jpg,yes,,phone,female,label,Fri Jul 24 2020 13:36:44 GMT+0200 (Mitteleuropäische Sommerzeit),1595590604909,9.834633333333333,main,31
1649,,3535,21,stimuli/sounds/phone_sound_smartphone.mp3,,incongruent,correct,Graduated High School,1595591194987,yes,156,female,phone,rotary,q,p,q,german and turkish,match,1,no,stimuli/images/phone_rotary_1.jpg,yes,,phone,smartphone,sound,Fri Jul 24 2020 13:36:44 GMT+0200 (Mitteleuropäische Sommerzeit),1595590604909,9.834633333333333,main,32
1649,,3246,21,stimuli/sounds/car_sound_ford.mp3,,-,correct,Graduated High School,1595591194987,no,156,female,bird,seagull,q,p,p,german and turkish,mismatch,1,no,stimuli/images/bird_seagull_1.jpg,yes,,car,ford,sound,Fri Jul 24 2020 13:36:44 GMT+0200 (Mitteleuropäische Sommerzeit),1595590604909,9.834633333333333,main,33
1649,,2770,21,stimuli/sounds/phone_sound_rotary.mp3,,-,correct,Graduated High School,1595591194987,no,156,female,dog,chihuahua,q,p,p,german and turkish,mismatch,1,no,stimuli/images/dog_chihuahua_1.jpg,yes,,phone,rotary,sound,Fri Jul 24 2020 13:36:44 GMT+0200 (Mitteleuropäische Sommerzeit),1595590604909,9.834633333333333,main,34
1649,,2926,21,stimuli/sounds/car_label_female.mp3,,-,correct,Graduated High School,1595591194987,no,156,female,phone,smartphone,q,p,p,german and turkish,mismatch,2,no,stimuli/images/phone_smartphone_2.jpg,yes,,car,female,label,Fri Jul 24 2020 13:36:44 GMT+0200 (Mitteleuropäische Sommerzeit),1595590604909,9.834633333333333,main,35
1649,,2901,21,stimuli/sounds/dog_sound_rottweiler.mp3,,-,correct,Graduated High School,1595591194987,no,156,female,instrument,cello,q,p,p,german and turkish,mismatch,1,no,stimuli/images/instrument_cello_1.jpg,yes,,dog,rottweiler,sound,Fri Jul 24 2020 13:36:44 GMT+0200 (Mitteleuropäische Sommerzeit),1595590604909,9.834633333333333,main,36
1649,,2771,21,stimuli/sounds/bird_sound_seagull.mp3,,-,correct,Graduated High School,1595591194987,no,156,female,dog,chihuahua,q,p,p,german and turkish,mismatch,1,no,stimuli/images/dog_chihuahua_1.jpg,yes,,bird,seagull,sound,Fri Jul 24 2020 13:36:44 GMT+0200 (Mitteleuropäische Sommerzeit),1595590604909,9.834633333333333,main,37
1649,,3336,21,stimuli/sounds/typing_label_male.mp3,,-,incorrect,Graduated High School,1595591194987,no,156,female,phone,rotary,q,p,q,german and turkish,mismatch,2,no,stimuli/images/phone_rotary_2.jpg,yes,,typing,male,label,Fri Jul 24 2020 13:36:44 GMT+0200 (Mitteleuropäische Sommerzeit),1595590604909,9.834633333333333,main,38
1649,,2854,21,stimuli/sounds/typing_sound_keyboard.mp3,,congruent,correct,Graduated High School,1595591194987,yes,156,female,typing,keyboard,q,p,q,german and turkish,match,1,no,stimuli/images/typing_keyboard_1.jpg,yes,,typing,keyboard,sound,Fri Jul 24 2020 13:36:44 GMT+0200 (Mitteleuropäische Sommerzeit),1595590604909,9.834633333333333,main,39
1649,,2824,21,stimuli/sounds/instrument_label_male.mp3,,-,correct,Graduated High School,1595591194987,no,156,female,typing,keyboard,q,p,p,german and turkish,mismatch,1,no,stimuli/images/typing_keyboard_1.jpg,yes,,instrument,male,label,Fri Jul 24 2020 13:36:44 GMT+0200 (Mitteleuropäische Sommerzeit),1595590604909,9.834633333333333,main,40
1649,,2693,21,stimuli/sounds/dog_label_male.mp3,,-,correct,Graduated High School,1595591194987,yes,156,female,dog,chihuahua,q,p,q,german and turkish,match,2,no,stimuli/images/dog_chihuahua_2.jpg,yes,,dog,male,label,Fri Jul 24 2020 13:36:44 GMT+0200 (Mitteleuropäische Sommerzeit),1595590604909,9.834633333333333,main,41
1649,,2851,21,stimuli/sounds/bird_sound_seagull.mp3,,-,correct,Graduated High School,1595591194987,no,156,female,car,ford,q,p,p,german and turkish,mismatch,1,no,stimuli/images/car_ford_1.jpg,yes,,bird,seagull,sound,Fri Jul 24 2020 13:36:44 GMT+0200 (Mitteleuropäische Sommerzeit),1595590604909,9.834633333333333,main,42
1649,,2800,21,stimuli/sounds/dog_sound_rottweiler.mp3,,congruent,correct,Graduated High School,1595591194987,yes,156,female,dog,rottweiler,q,p,q,german and turkish,match,1,no,stimuli/images/dog_rottweiler_1.jpg,yes,,dog,rottweiler,sound,Fri Jul 24 2020 13:36:44 GMT+0200 (Mitteleuropäische Sommerzeit),1595590604909,9.834633333333333,main,43
1649,,3153,21,stimuli/sounds/phone_sound_smartphone.mp3,,-,correct,Graduated High School,1595591194987,no,156,female,dog,chihuahua,q,p,p,german and turkish,mismatch,1,no,stimuli/images/dog_chihuahua_1.jpg,yes,,phone,smartphone,sound,Fri Jul 24 2020 13:36:44 GMT+0200 (Mitteleuropäische Sommerzeit),1595590604909,9.834633333333333,main,44
1649,,3126,21,stimuli/sounds/typing_sound_typewriter.mp3,,congruent,correct,Graduated High School,1595591194987,yes,156,female,typing,typewriter,q,p,q,german and turkish,match,1,no,stimuli/images/typing_typewriter_1.jpg,yes,,typing,typewriter,sound,Fri Jul 24 2020 13:36:44 GMT+0200 (Mitteleuropäische Sommerzeit),1595590604909,9.834633333333333,main,45
1649,,2846,21,stimuli/sounds/phone_sound_rotary.mp3,,-,correct,Graduated High School,1595591194987,no,156,female,bird,seagull,q,p,p,german and turkish,mismatch,1,no,stimuli/images/bird_seagull_1.jpg,yes,,phone,rotary,sound,Fri Jul 24 2020 13:36:44 GMT+0200 (Mitteleuropäische Sommerzeit),1595590604909,9.834633333333333,main,46
1649,,2925,21,stimuli/sounds/phone_sound_rotary.mp3,,congruent,correct,Graduated High School,1595591194987,yes,156,female,phone,rotary,q,p,q,german and turkish,match,1,no,stimuli/images/phone_rotary_1.jpg,yes,,phone,rotary,sound,Fri Jul 24 2020 13:36:44 GMT+0200 (Mitteleuropäische Sommerzeit),1595590604909,9.834633333333333,main,47
1649,,2857,21,stimuli/sounds/dog_sound_rottweiler.mp3,,-,incorrect,Graduated High School,1595591194987,no,156,female,phone,smartphone,q,p,q,german and turkish,mismatch,2,no,stimuli/images/phone_smartphone_2.jpg,yes,,dog,rottweiler,sound,Fri Jul 24 2020 13:36:44 GMT+0200 (Mitteleuropäische Sommerzeit),1595590604909,9.834633333333333,main,48
1649,,2899,21,stimuli/sounds/phone_label_male.mp3,,-,correct,Graduated High School,1595591194987,yes,156,female,phone,smartphone,q,p,q,german and turkish,match,1,no,stimuli/images/phone_smartphone_1.jpg,yes,,phone,male,label,Fri Jul 24 2020 13:36:44 GMT+0200 (Mitteleuropäische Sommerzeit),1595590604909,9.834633333333333,main,49
1649,,2708,21,stimuli/sounds/phone_sound_smartphone.mp3,,-,correct,Graduated High School,1595591194987,no,156,female,dog,chihuahua,q,p,p,german and turkish,mismatch,2,no,stimuli/images/dog_chihuahua_2.jpg,yes,,phone,smartphone,sound,Fri Jul 24 2020 13:36:44 GMT+0200 (Mitteleuropäische Sommerzeit),1595590604909,9.834633333333333,main,50
1649,,3276,21,stimuli/sounds/phone_label_female.mp3,,-,correct,Graduated High School,1595591194987,yes,156,female,phone,smartphone,q,p,q,german and turkish,match,2,no,stimuli/images/phone_smartphone_2.jpg,yes,,phone,female,label,Fri Jul 24 2020 13:36:44 GMT+0200 (Mitteleuropäische Sommerzeit),1595590604909,9.834633333333333,main,51
1649,,2768,21,stimuli/sounds/phone_sound_rotary.mp3,,incongruent,correct,Graduated High School,1595591194987,yes,156,female,phone,smartphone,q,p,q,german and turkish,match,2,no,stimuli/images/phone_smartphone_2.jpg,yes,,phone,rotary,sound,Fri Jul 24 2020 13:36:44 GMT+0200 (Mitteleuropäische Sommerzeit),1595590604909,9.834633333333333,main,52
1649,,2862,21,stimuli/sounds/typing_label_female.mp3,,-,correct,Graduated High School,1595591194987,no,156,female,car,v8,q,p,p,german and turkish,mismatch,1,no,stimuli/images/car_v8_1.jpg,yes,,typing,female,label,Fri Jul 24 2020 13:36:44 GMT+0200 (Mitteleuropäische Sommerzeit),1595590604909,9.834633333333333,main,53
1649,,2947,21,stimuli/sounds/typing_label_female.mp3,,-,incorrect,Graduated High School,1595591194987,yes,156,female,typing,keyboard,q,p,p,german and turkish,match,2,no,stimuli/images/typing_keyboard_2.jpg,yes,,typing,female,label,Fri Jul 24 2020 13:36:44 GMT+0200 (Mitteleuropäische Sommerzeit),1595590604909,9.834633333333333,main,54
1649,,3351,21,stimuli/sounds/dog_sound_rottweiler.mp3,,congruent,correct,Graduated High School,1595591194987,yes,156,female,dog,rottweiler,q,p,q,german and turkish,match,2,no,stimuli/images/dog_rottweiler_2.jpg,yes,,dog,rottweiler,sound,Fri Jul 24 2020 13:36:44 GMT+0200 (Mitteleuropäische Sommerzeit),1595590604909,9.834633333333333,main,55
1649,,2740,21,stimuli/sounds/dog_label_female.mp3,,-,correct,Graduated High School,1595591194987,yes,156,female,dog,rottweiler,q,p,q,german and turkish,match,2,no,stimuli/images/dog_rottweiler_2.jpg,yes,,dog,female,label,Fri Jul 24 2020 13:36:44 GMT+0200 (Mitteleuropäische Sommerzeit),1595590604909,9.834633333333333,main,56
1649,,2732,21,stimuli/sounds/dog_label_male.mp3,,-,correct,Graduated High School,1595591194987,yes,156,female,dog,rottweiler,q,p,q,german and turkish,match,1,no,stimuli/images/dog_rottweiler_1.jpg,yes,,dog,male,label,Fri Jul 24 2020 13:36:44 GMT+0200 (Mitteleuropäische Sommerzeit),1595590604909,9.834633333333333,main,57
1649,,2690,21,stimuli/sounds/dog_sound_chihuahua.mp3,,incongruent,correct,Graduated High School,1595591194987,yes,156,female,dog,rottweiler,q,p,q,german and turkish,match,1,no,stimuli/images/dog_rottweiler_1.jpg,yes,,dog,chihuahua,sound,Fri Jul 24 2020 13:36:44 GMT+0200 (Mitteleuropäische Sommerzeit),1595590604909,9.834633333333333,main,58
1649,,3393,21,stimuli/sounds/car_sound_ford.mp3,,-,correct,Graduated High School,1595591194987,no,156,female,typing,keyboard,q,p,p,german and turkish,mismatch,1,no,stimuli/images/typing_keyboard_1.jpg,yes,,car,ford,sound,Fri Jul 24 2020 13:36:44 GMT+0200 (Mitteleuropäische Sommerzeit),1595590604909,9.834633333333333,main,59
1649,,3024,21,stimuli/sounds/instrument_label_male.mp3,,-,correct,Graduated High School,1595591194987,yes,156,female,instrument,violin,q,p,q,german and turkish,match,2,no,stimuli/images/instrument_violin_2.jpg,yes,,instrument,male,label,Fri Jul 24 2020 13:36:44 GMT+0200 (Mitteleuropäische Sommerzeit),1595590604909,9.834633333333333,main,60
1649,,3261,21,stimuli/sounds/instrument_label_female.mp3,,-,correct,Graduated High School,1595591194987,no,156,female,typing,keyboard,q,p,p,german and turkish,mismatch,2,no,stimuli/images/typing_keyboard_2.jpg,yes,,instrument,female,label,Fri Jul 24 2020 13:36:44 GMT+0200 (Mitteleuropäische Sommerzeit),1595590604909,9.834633333333333,main,61
1649,,5067,21,stimuli/sounds/car_sound_v8.mp3,,incongruent,correct,Graduated High School,1595591194987,yes,156,female,car,ford,q,p,q,german and turkish,match,1,no,stimuli/images/car_ford_1.jpg,yes,,car,v8,sound,Fri Jul 24 2020 13:36:44 GMT+0200 (Mitteleuropäische Sommerzeit),1595590604909,9.834633333333333,main,62
1649,,2899,21,stimuli/sounds/car_label_female.mp3,,-,correct,Graduated High School,1595591194987,yes,156,female,car,v8,q,p,q,german and turkish,match,2,no,stimuli/images/car_v8_2.jpg,yes,,car,female,label,Fri Jul 24 2020 13:36:44 GMT+0200 (Mitteleuropäische Sommerzeit),1595590604909,9.834633333333333,main,63
1649,,2771,21,stimuli/sounds/phone_sound_smartphone.mp3,,congruent,correct,Graduated High School,1595591194987,yes,156,female,phone,smartphone,q,p,q,german and turkish,match,2,no,stimuli/images/phone_smartphone_2.jpg,yes,,phone,smartphone,sound,Fri Jul 24 2020 13:36:44 GMT+0200 (Mitteleuropäische Sommerzeit),1595590604909,9.834633333333333,main,64
1649,,3051,21,stimuli/sounds/phone_label_male.mp3,,-,correct,Graduated High School,1595591194987,no,156,female,bird,robin,q,p,p,german and turkish,mismatch,2,no,stimuli/images/bird_robin_2.jpg,yes,,phone,male,label,Fri Jul 24 2020 13:36:44 GMT+0200 (Mitteleuropäische Sommerzeit),1595590604909,9.834633333333333,main,65
1649,,2911,21,stimuli/sounds/dog_sound_chihuahua.mp3,,-,correct,Graduated High School,1595591194987,no,156,female,car,v8,q,p,p,german and turkish,mismatch,2,no,stimuli/images/car_v8_2.jpg,yes,,dog,chihuahua,sound,Fri Jul 24 2020 13:36:44 GMT+0200 (Mitteleuropäische Sommerzeit),1595590604909,9.834633333333333,main,66
1649,,2935,21,stimuli/sounds/bird_label_female.mp3,,-,correct,Graduated High School,1595591194987,yes,156,female,bird,robin,q,p,q,german and turkish,match,1,no,stimuli/images/bird_robin_1.jpg,yes,,bird,female,label,Fri Jul 24 2020 13:36:44 GMT+0200 (Mitteleuropäische Sommerzeit),1595590604909,9.834633333333333,main,67
1649,,2867,21,stimuli/sounds/typing_label_female.mp3,,-,correct,Graduated High School,1595591194987,yes,156,female,typing,typewriter,q,p,q,german and turkish,match,1,no,stimuli/images/typing_typewriter_1.jpg,yes,,typing,female,label,Fri Jul 24 2020 13:36:44 GMT+0200 (Mitteleuropäische Sommerzeit),1595590604909,9.834633333333333,main,68
1649,,3244,21,stimuli/sounds/bird_label_male.mp3,,-,correct,Graduated High School,1595591194987,no,156,female,phone,rotary,q,p,p,german and turkish,mismatch,1,no,stimuli/images/phone_rotary_1.jpg,yes,,bird,male,label,Fri Jul 24 2020 13:36:44 GMT+0200 (Mitteleuropäische Sommerzeit),1595590604909,9.834633333333333,main,69
1649,,3039,21,stimuli/sounds/typing_label_male.mp3,,-,correct,Graduated High School,1595591194987,yes,156,female,typing,keyboard,q,p,q,german and turkish,match,1,no,stimuli/images/typing_keyboard_1.jpg,yes,,typing,male,label,Fri Jul 24 2020 13:36:44 GMT+0200 (Mitteleuropäische Sommerzeit),1595590604909,9.834633333333333,main,70
1649,,2926,21,stimuli/sounds/car_label_male.mp3,,-,correct,Graduated High School,1595591194987,no,156,female,dog,rottweiler,q,p,p,german and turkish,mismatch,2,no,stimuli/images/dog_rottweiler_2.jpg,yes,,car,male,label,Fri Jul 24 2020 13:36:44 GMT+0200 (Mitteleuropäische Sommerzeit),1595590604909,9.834633333333333,main,71
1649,,3267,21,stimuli/sounds/phone_label_male.mp3,,-,correct,Graduated High School,1595591194987,no,156,female,instrument,violin,q,p,p,german and turkish,mismatch,1,no,stimuli/images/instrument_violin_1.jpg,yes,,phone,male,label,Fri Jul 24 2020 13:36:44 GMT+0200 (Mitteleuropäische Sommerzeit),1595590604909,9.834633333333333,main,72
1649,,2774,21,stimuli/sounds/bird_sound_robin.mp3,,congruent,correct,Graduated High School,1595591194987,yes,156,female,bird,robin,q,p,q,german and turkish,match,2,no,stimuli/images/bird_robin_2.jpg,yes,,bird,robin,sound,Fri Jul 24 2020 13:36:44 GMT+0200 (Mitteleuropäische Sommerzeit),1595590604909,9.834633333333333,main,73
1649,,3735,21,stimuli/sounds/car_label_male.mp3,,-,correct,Graduated High School,1595591194987,yes,156,female,car,v8,q,p,q,german and turkish,match,1,no,stimuli/images/car_v8_1.jpg,yes,,car,male,label,Fri Jul 24 2020 13:36:44 GMT+0200 (Mitteleuropäische Sommerzeit),1595590604909,9.834633333333333,main,74
1649,,3275,21,stimuli/sounds/typing_sound_keyboard.mp3,,-,correct,Graduated High School,1595591194987,no,156,female,bird,seagull,q,p,p,german and turkish,mismatch,2,no,stimuli/images/bird_seagull_2.jpg,yes,,typing,keyboard,sound,Fri Jul 24 2020 13:36:44 GMT+0200 (Mitteleuropäische Sommerzeit),1595590604909,9.834633333333333,main,75
1649,,3138,21,stimuli/sounds/typing_label_male.mp3,,-,correct,Graduated High School,1595591194987,no,156,female,instrument,cello,q,p,p,german and turkish,mismatch,1,no,stimuli/images/instrument_cello_1.jpg,yes,,typing,male,label,Fri Jul 24 2020 13:36:44 GMT+0200 (Mitteleuropäische Sommerzeit),1595590604909,9.834633333333333,main,76
1649,,2828,21,stimuli/sounds/car_sound_v8.mp3,,-,correct,Graduated High School,1595591194987,no,156,female,dog,chihuahua,q,p,p,german and turkish,mismatch,2,no,stimuli/images/dog_chihuahua_2.jpg,yes,,car,v8,sound,Fri Jul 24 2020 13:36:44 GMT+0200 (Mitteleuropäische Sommerzeit),1595590604909,9.834633333333333,main,77
1649,,2892,21,stimuli/sounds/instrument_label_female.mp3,,-,correct,Graduated High School,1595591194987,yes,156,female,instrument,cello,q,p,q,german and turkish,match,2,no,stimuli/images/instrument_cello_2.jpg,yes,,instrument,female,label,Fri Jul 24 2020 13:36:44 GMT+0200 (Mitteleuropäische Sommerzeit),1595590604909,9.834633333333333,main,78
1649,,2768,21,stimuli/sounds/instrument_sound_cello.mp3,,incongruent,correct,Graduated High School,1595591194987,yes,156,female,instrument,violin,q,p,q,german and turkish,match,1,no,stimuli/images/instrument_violin_1.jpg,yes,,instrument,cello,sound,Fri Jul 24 2020 13:36:44 GMT+0200 (Mitteleuropäische Sommerzeit),1595590604909,9.834633333333333,main,79
1649,,2844,21,stimuli/sounds/dog_label_male.mp3,,-,correct,Graduated High School,1595591194987,no,156,female,instrument,cello,q,p,p,german and turkish,mismatch,2,no,stimuli/images/instrument_cello_2.jpg,yes,,dog,male,label,Fri Jul 24 2020 13:36:44 GMT+0200 (Mitteleuropäische Sommerzeit),1595590604909,9.834633333333333,main,80
1649,,3071,21,stimuli/sounds/bird_sound_robin.mp3,,-,correct,Graduated High School,1595591194987,no,156,female,dog,rottweiler,q,p,p,german and turkish,mismatch,1,no,stimuli/images/dog_rottweiler_1.jpg,yes,,bird,robin,sound,Fri Jul 24 2020 13:36:44 GMT+0200 (Mitteleuropäische Sommerzeit),1595590604909,9.834633333333333,main,81
1649,,2824,21,stimuli/sounds/bird_label_male.mp3,,-,correct,Graduated High School,1595591194987,yes,156,female,bird,seagull,q,p,q,german and turkish,match,1,no,stimuli/images/bird_seagull_1.jpg,yes,,bird,male,label,Fri Jul 24 2020 13:36:44 GMT+0200 (Mitteleuropäische Sommerzeit),1595590604909,9.834633333333333,main,82
1649,,2860,21,stimuli/sounds/instrument_sound_cello.mp3,,-,correct,Graduated High School,1595591194987,no,156,female,car,v8,q,p,p,german and turkish,mismatch,2,no,stimuli/images/car_v8_2.jpg,yes,,instrument,cello,sound,Fri Jul 24 2020 13:36:44 GMT+0200 (Mitteleuropäische Sommerzeit),1595590604909,9.834633333333333,main,83
1649,,2714,21,stimuli/sounds/bird_sound_seagull.mp3,,congruent,correct,Graduated High School,1595591194987,yes,156,female,bird,seagull,q,p,q,german and turkish,match,1,no,stimuli/images/bird_seagull_1.jpg,yes,,bird,seagull,sound,Fri Jul 24 2020 13:36:44 GMT+0200 (Mitteleuropäische Sommerzeit),1595590604909,9.834633333333333,main,84
1649,,3362,21,stimuli/sounds/car_sound_ford.mp3,,incongruent,correct,Graduated High School,1595591194987,yes,156,female,car,v8,q,p,q,german and turkish,match,1,no,stimuli/images/car_v8_1.jpg,yes,,car,ford,sound,Fri Jul 24 2020 13:36:44 GMT+0200 (Mitteleuropäische Sommerzeit),1595590604909,9.834633333333333,main,85
1649,,2920,21,stimuli/sounds/phone_label_male.mp3,,-,correct,Graduated High School,1595591194987,yes,156,female,phone,smartphone,q,p,q,german and turkish,match,1,no,stimuli/images/phone_smartphone_1.jpg,yes,,phone,male,label,Fri Jul 24 2020 13:36:44 GMT+0200 (Mitteleuropäische Sommerzeit),1595590604909,9.834633333333333,main,86
1649,,3022,21,stimuli/sounds/typing_label_male.mp3,,-,correct,Graduated High School,1595591194987,no,156,female,dog,chihuahua,q,p,p,german and turkish,mismatch,1,no,stimuli/images/dog_chihuahua_1.jpg,yes,,typing,male,label,Fri Jul 24 2020 13:36:44 GMT+0200 (Mitteleuropäische Sommerzeit),1595590604909,9.834633333333333,main,87
1649,,3530,21,stimuli/sounds/car_sound_v8.mp3,,congruent,correct,Graduated High School,1595591194987,yes,156,female,car,v8,q,p,q,german and turkish,match,2,no,stimuli/images/car_v8_2.jpg,yes,,car,v8,sound,Fri Jul 24 2020 13:36:44 GMT+0200 (Mitteleuropäische Sommerzeit),1595590604909,9.834633333333333,main,88
1649,,2972,21,stimuli/sounds/phone_sound_rotary.mp3,,incongruent,correct,Graduated High School,1595591194987,yes,156,female,phone,smartphone,q,p,q,german and turkish,match,2,no,stimuli/images/phone_smartphone_2.jpg,yes,,phone,rotary,sound,Fri Jul 24 2020 13:36:44 GMT+0200 (Mitteleuropäische Sommerzeit),1595590604909,9.834633333333333,main,89
1649,,3177,21,stimuli/sounds/instrument_sound_violin.mp3,,incongruent,correct,Graduated High School,1595591194987,yes,156,female,instrument,cello,q,p,q,german and turkish,match,1,no,stimuli/images/instrument_cello_1.jpg,yes,,instrument,violin,sound,Fri Jul 24 2020 13:36:44 GMT+0200 (Mitteleuropäische Sommerzeit),1595590604909,9.834633333333333,main,90
1649,,2700,21,stimuli/sounds/instrument_sound_cello.mp3,,-,correct,Graduated High School,1595591194987,no,156,female,bird,seagull,q,p,p,german and turkish,mismatch,1,no,stimuli/images/bird_seagull_1.jpg,yes,,instrument,cello,sound,Fri Jul 24 2020 13:36:44 GMT+0200 (Mitteleuropäische Sommerzeit),1595590604909,9.834633333333333,main,91
1649,,2777,21,stimuli/sounds/typing_label_male.mp3,,-,correct,Graduated High School,1595591194987,yes,156,female,typing,keyboard,q,p,q,german and turkish,match,1,no,stimuli/images/typing_keyboard_1.jpg,yes,,typing,male,label,Fri Jul 24 2020 13:36:44 GMT+0200 (Mitteleuropäische Sommerzeit),1595590604909,9.834633333333333,main,92
1649,,3012,21,stimuli/sounds/phone_sound_smartphone.mp3,,congruent,correct,Graduated High School,1595591194987,yes,156,female,phone,smartphone,q,p,q,german and turkish,match,1,no,stimuli/images/phone_smartphone_1.jpg,yes,,phone,smartphone,sound,Fri Jul 24 2020 13:36:44 GMT+0200 (Mitteleuropäische Sommerzeit),1595590604909,9.834633333333333,main,93
1649,,2714,21,stimuli/sounds/car_label_female.mp3,,-,correct,Graduated High School,1595591194987,yes,156,female,car,v8,q,p,q,german and turkish,match,2,no,stimuli/images/car_v8_2.jpg,yes,,car,female,label,Fri Jul 24 2020 13:36:44 GMT+0200 (Mitteleuropäische Sommerzeit),1595590604909,9.834633333333333,main,94
1649,,2870,21,stimuli/sounds/dog_label_female.mp3,,-,correct,Graduated High School,1595591194987,no,156,female,typing,keyboard,q,p,p,german and turkish,mismatch,1,no,stimuli/images/typing_keyboard_1.jpg,yes,,dog,female,label,Fri Jul 24 2020 13:36:44 GMT+0200 (Mitteleuropäische Sommerzeit),1595590604909,9.834633333333333,main,95
1649,,3310,21,stimuli/sounds/dog_label_female.mp3,,-,correct,Graduated High School,1595591194987,no,156,female,typing,typewriter,q,p,p,german and turkish,mismatch,2,no,stimuli/images/typing_typewriter_2.jpg,yes,,dog,female,label,Fri Jul 24 2020 13:36:44 GMT+0200 (Mitteleuropäische Sommerzeit),1595590604909,9.834633333333333,main,96
1649,,2894,21,stimuli/sounds/dog_sound_rottweiler.mp3,,incongruent,correct,Graduated High School,1595591194987,yes,156,female,dog,chihuahua,q,p,q,german and turkish,match,1,no,stimuli/images/dog_chihuahua_1.jpg,yes,,dog,rottweiler,sound,Fri Jul 24 2020 13:36:44 GMT+0200 (Mitteleuropäische Sommerzeit),1595590604909,9.834633333333333,main,97
1649,,3207,21,stimuli/sounds/phone_label_female.mp3,,-,correct,Graduated High School,1595591194987,no,156,female,dog,rottweiler,q,p,p,german and turkish,mismatch,2,no,stimuli/images/dog_rottweiler_2.jpg,yes,,phone,female,label,Fri Jul 24 2020 13:36:44 GMT+0200 (Mitteleuropäische Sommerzeit),1595590604909,9.834633333333333,main,98
1649,,3152,21,stimuli/sounds/car_sound_v8.mp3,,congruent,correct,Graduated High School,1595591194987,yes,156,female,car,v8,q,p,q,german and turkish,match,1,no,stimuli/images/car_v8_1.jpg,yes,,car,v8,sound,Fri Jul 24 2020 13:36:44 GMT+0200 (Mitteleuropäische Sommerzeit),1595590604909,9.834633333333333,main,99
1649,,3413,21,stimuli/sounds/bird_sound_robin.mp3,,incongruent,correct,Graduated High School,1595591194987,yes,156,female,bird,seagull,q,p,q,german and turkish,match,2,no,stimuli/images/bird_seagull_2.jpg,yes,,bird,robin,sound,Fri Jul 24 2020 13:36:44 GMT+0200 (Mitteleuropäische Sommerzeit),1595590604909,9.834633333333333,main,100
1649,,2834,21,stimuli/sounds/bird_label_male.mp3,,-,correct,Graduated High School,1595591194987,yes,156,female,bird,robin,q,p,q,german and turkish,match,2,no,stimuli/images/bird_robin_2.jpg,yes,,bird,male,label,Fri Jul 24 2020 13:36:44 GMT+0200 (Mitteleuropäische Sommerzeit),1595590604909,9.834633333333333,main,101
1649,,2716,21,stimuli/sounds/phone_sound_rotary.mp3,,-,incorrect,Graduated High School,1595591194987,no,156,female,typing,typewriter,q,p,q,german and turkish,mismatch,2,no,stimuli/images/typing_typewriter_2.jpg,yes,,phone,rotary,sound,Fri Jul 24 2020 13:36:44 GMT+0200 (Mitteleuropäische Sommerzeit),1595590604909,9.834633333333333,main,102
1649,,3119,21,stimuli/sounds/car_label_male.mp3,,-,correct,Graduated High School,1595591194987,no,156,female,dog,chihuahua,q,p,p,german and turkish,mismatch,1,no,stimuli/images/dog_chihuahua_1.jpg,yes,,car,male,label,Fri Jul 24 2020 13:36:44 GMT+0200 (Mitteleuropäische Sommerzeit),1595590604909,9.834633333333333,main,103
1649,,3007,21,stimuli/sounds/instrument_label_male.mp3,,-,correct,Graduated High School,1595591194987,yes,156,female,instrument,violin,q,p,q,german and turkish,match,1,no,stimuli/images/instrument_violin_1.jpg,yes,,instrument,male,label,Fri Jul 24 2020 13:36:44 GMT+0200 (Mitteleuropäische Sommerzeit),1595590604909,9.834633333333333,main,104
1649,,3364,21,stimuli/sounds/typing_sound_typewriter.mp3,,-,correct,Graduated High School,1595591194987,no,156,female,dog,rottweiler,q,p,p,german and turkish,mismatch,1,no,stimuli/images/dog_rottweiler_1.jpg,yes,,typing,typewriter,sound,Fri Jul 24 2020 13:36:44 GMT+0200 (Mitteleuropäische Sommerzeit),1595590604909,9.834633333333333,main,105
1649,,3334,21,stimuli/sounds/dog_sound_rottweiler.mp3,,-,correct,Graduated High School,1595591194987,no,156,female,car,v8,q,p,p,german and turkish,mismatch,2,no,stimuli/images/car_v8_2.jpg,yes,,dog,rottweiler,sound,Fri Jul 24 2020 13:36:44 GMT+0200 (Mitteleuropäische Sommerzeit),1595590604909,9.834633333333333,main,106
1649,,3173,21,stimuli/sounds/instrument_sound_violin.mp3,,-,correct,Graduated High School,1595591194987,no,156,female,phone,rotary,q,p,p,german and turkish,mismatch,1,no,stimuli/images/phone_rotary_1.jpg,yes,,instrument,violin,sound,Fri Jul 24 2020 13:36:44 GMT+0200 (Mitteleuropäische Sommerzeit),1595590604909,9.834633333333333,main,107
1649,,3205,21,stimuli/sounds/typing_sound_keyboard.mp3,,congruent,correct,Graduated High School,1595591194987,yes,156,female,typing,keyboard,q,p,q,german and turkish,match,2,no,stimuli/images/typing_keyboard_2.jpg,yes,,typing,keyboard,sound,Fri Jul 24 2020 13:36:44 GMT+0200 (Mitteleuropäische Sommerzeit),1595590604909,9.834633333333333,main,108
1649,,2931,21,stimuli/sounds/phone_sound_smartphone.mp3,,-,correct,Graduated High School,1595591194987,no,156,female,instrument,violin,q,p,p,german and turkish,mismatch,2,no,stimuli/images/instrument_violin_2.jpg,yes,,phone,smartphone,sound,Fri Jul 24 2020 13:36:44 GMT+0200 (Mitteleuropäische Sommerzeit),1595590604909,9.834633333333333,main,109
1649,,2852,21,stimuli/sounds/phone_label_male.mp3,,-,correct,Graduated High School,1595591194987,yes,156,female,phone,smartphone,q,p,q,german and turkish,match,2,no,stimuli/images/phone_smartphone_2.jpg,yes,,phone,male,label,Fri Jul 24 2020 13:36:44 GMT+0200 (Mitteleuropäische Sommerzeit),1595590604909,9.834633333333333,main,110
1649,,3109,21,stimuli/sounds/bird_label_female.mp3,,-,correct,Graduated High School,1595591194987,yes,156,female,bird,robin,q,p,q,german and turkish,match,2,no,stimuli/images/bird_robin_2.jpg,yes,,bird,female,label,Fri Jul 24 2020 13:36:44 GMT+0200 (Mitteleuropäische Sommerzeit),1595590604909,9.834633333333333,main,111
1649,,3108,21,stimuli/sounds/typing_label_female.mp3,,-,correct,Graduated High School,1595591194987,no,156,female,instrument,cello,q,p,p,german and turkish,mismatch,2,no,stimuli/images/instrument_cello_2.jpg,yes,,typing,female,label,Fri Jul 24 2020 13:36:44 GMT+0200 (Mitteleuropäische Sommerzeit),1595590604909,9.834633333333333,main,112
1649,,3311,21,stimuli/sounds/car_label_male.mp3,,-,correct,Graduated High School,1595591194987,yes,156,female,car,v8,q,p,q,german and turkish,match,1,no,stimuli/images/car_v8_1.jpg,yes,,car,male,label,Fri Jul 24 2020 13:36:44 GMT+0200 (Mitteleuropäische Sommerzeit),1595590604909,9.834633333333333,main,113
1649,,3934,21,stimuli/sounds/bird_label_female.mp3,,-,correct,Graduated High School,1595591194987,no,156,female,car,ford,q,p,p,german and turkish,mismatch,2,no,stimuli/images/car_ford_2.jpg,yes,,bird,female,label,Fri Jul 24 2020 13:36:44 GMT+0200 (Mitteleuropäische Sommerzeit),1595590604909,9.834633333333333,main,114
1649,,4219,21,stimuli/sounds/car_sound_ford.mp3,,incongruent,correct,Graduated High School,1595591194987,yes,156,female,car,v8,q,p,q,german and turkish,match,2,no,stimuli/images/car_v8_2.jpg,yes,,car,ford,sound,Fri Jul 24 2020 13:36:44 GMT+0200 (Mitteleuropäische Sommerzeit),1595590604909,9.834633333333333,main,115
1649,,2965,21,stimuli/sounds/bird_sound_robin.mp3,,incongruent,correct,Graduated High School,1595591194987,yes,156,female,bird,seagull,q,p,q,german and turkish,match,1,no,stimuli/images/bird_seagull_1.jpg,yes,,bird,robin,sound,Fri Jul 24 2020 13:36:44 GMT+0200 (Mitteleuropäische Sommerzeit),1595590604909,9.834633333333333,main,116
1649,,2821,21,stimuli/sounds/instrument_sound_cello.mp3,,-,correct,Graduated High School,1595591194987,no,156,female,bird,robin,q,p,p,german and turkish,mismatch,2,no,stimuli/images/bird_robin_2.jpg,yes,,instrument,cello,sound,Fri Jul 24 2020 13:36:44 GMT+0200 (Mitteleuropäische Sommerzeit),1595590604909,9.834633333333333,main,117
1649,,3208,21,stimuli/sounds/instrument_label_female.mp3,,-,correct,Graduated High School,1595591194987,no,156,female,bird,robin,q,p,p,german and turkish,mismatch,1,no,stimuli/images/bird_robin_1.jpg,yes,,instrument,female,label,Fri Jul 24 2020 13:36:44 GMT+0200 (Mitteleuropäische Sommerzeit),1595590604909,9.834633333333333,main,118
1649,,2887,21,stimuli/sounds/car_label_male.mp3,,-,correct,Graduated High School,1595591194987,no,156,female,bird,robin,q,p,p,german and turkish,mismatch,2,no,stimuli/images/bird_robin_2.jpg,yes,,car,male,label,Fri Jul 24 2020 13:36:44 GMT+0200 (Mitteleuropäische Sommerzeit),1595590604909,9.834633333333333,main,119
1649,,3147,21,stimuli/sounds/dog_sound_chihuahua.mp3,,-,correct,Graduated High School,1595591194987,no,156,female,phone,smartphone,q,p,p,german and turkish,mismatch,2,no,stimuli/images/phone_smartphone_2.jpg,yes,,dog,chihuahua,sound,Fri Jul 24 2020 13:36:44 GMT+0200 (Mitteleuropäische Sommerzeit),1595590604909,9.834633333333333,main,120
1649,,3153,21,stimuli/sounds/typing_sound_typewriter.mp3,,-,correct,Graduated High School,1595591194987,no,156,female,car,ford,q,p,p,german and turkish,mismatch,2,no,stimuli/images/car_ford_2.jpg,yes,,typing,typewriter,sound,Fri Jul 24 2020 13:36:44 GMT+0200 (Mitteleuropäische Sommerzeit),1595590604909,9.834633333333333,main,121
1649,,2823,21,stimuli/sounds/instrument_sound_violin.mp3,,congruent,correct,Graduated High School,1595591194987,yes,156,female,instrument,violin,q,p,q,german and turkish,match,2,no,stimuli/images/instrument_violin_2.jpg,yes,,instrument,violin,sound,Fri Jul 24 2020 13:36:44 GMT+0200 (Mitteleuropäische Sommerzeit),1595590604909,9.834633333333333,main,122
1649,,2823,21,stimuli/sounds/typing_label_female.mp3,,-,correct,Graduated High School,1595591194987,yes,156,female,typing,typewriter,q,p,q,german and turkish,match,1,no,stimuli/images/typing_typewriter_1.jpg,yes,,typing,female,label,Fri Jul 24 2020 13:36:44 GMT+0200 (Mitteleuropäische Sommerzeit),1595590604909,9.834633333333333,main,123
1649,,2724,21,stimuli/sounds/typing_sound_typewriter.mp3,,congruent,correct,Graduated High School,1595591194987,yes,156,female,typing,typewriter,q,p,q,german and turkish,match,1,no,stimuli/images/typing_typewriter_1.jpg,yes,,typing,typewriter,sound,Fri Jul 24 2020 13:36:44 GMT+0200 (Mitteleuropäische Sommerzeit),1595590604909,9.834633333333333,main,124
1649,,2811,21,stimuli/sounds/phone_label_male.mp3,,-,correct,Graduated High School,1595591194987,no,156,female,instrument,violin,q,p,p,german and turkish,mismatch,2,no,stimuli/images/instrument_violin_2.jpg,yes,,phone,male,label,Fri Jul 24 2020 13:36:44 GMT+0200 (Mitteleuropäische Sommerzeit),1595590604909,9.834633333333333,main,125
1649,,12065,21,stimuli/sounds/instrument_sound_violin.mp3,,-,correct,Graduated High School,1595591194987,no,156,female,phone,smartphone,q,p,p,german and turkish,mismatch,1,no,stimuli/images/phone_smartphone_1.jpg,yes,,instrument,violin,sound,Fri Jul 24 2020 13:36:44 GMT+0200 (Mitteleuropäische Sommerzeit),1595590604909,9.834633333333333,main,126
1649,,3676,21,stimuli/sounds/typing_label_female.mp3,,-,correct,Graduated High School,1595591194987,no,156,female,dog,rottweiler,q,p,p,german and turkish,mismatch,1,no,stimuli/images/dog_rottweiler_1.jpg,yes,,typing,female,label,Fri Jul 24 2020 13:36:44 GMT+0200 (Mitteleuropäische Sommerzeit),1595590604909,9.834633333333333,main,127
1649,,3194,21,stimuli/sounds/typing_sound_typewriter.mp3,,congruent,correct,Graduated High School,1595591194987,yes,156,female,typing,typewriter,q,p,q,german and turkish,match,2,no,stimuli/images/typing_typewriter_2.jpg,yes,,typing,typewriter,sound,Fri Jul 24 2020 13:36:44 GMT+0200 (Mitteleuropäische Sommerzeit),1595590604909,9.834633333333333,main,128
1649,,2881,21,stimuli/sounds/car_label_male.mp3,,-,correct,Graduated High School,1595591194987,yes,156,female,car,v8,q,p,q,german and turkish,match,2,no,stimuli/images/car_v8_2.jpg,yes,,car,male,label,Fri Jul 24 2020 13:36:44 GMT+0200 (Mitteleuropäische Sommerzeit),1595590604909,9.834633333333333,main,129
1649,,2776,21,stimuli/sounds/dog_label_male.mp3,,-,correct,Graduated High School,1595591194987,yes,156,female,dog,rottweiler,q,p,q,german and turkish,match,1,no,stimuli/images/dog_rottweiler_1.jpg,yes,,dog,male,label,Fri Jul 24 2020 13:36:44 GMT+0200 (Mitteleuropäische Sommerzeit),1595590604909,9.834633333333333,main,130
1649,,3381,21,stimuli/sounds/bird_label_male.mp3,,-,correct,Graduated High School,1595591194987,no,156,female,phone,rotary,q,p,p,german and turkish,mismatch,2,no,stimuli/images/phone_rotary_2.jpg,yes,,bird,male,label,Fri Jul 24 2020 13:36:44 GMT+0200 (Mitteleuropäische Sommerzeit),1595590604909,9.834633333333333,main,131
1649,,3500,21,stimuli/sounds/dog_label_male.mp3,,-,correct,Graduated High School,1595591194987,no,156,female,car,ford,q,p,p,german and turkish,mismatch,1,no,stimuli/images/car_ford_1.jpg,yes,,dog,male,label,Fri Jul 24 2020 13:36:44 GMT+0200 (Mitteleuropäische Sommerzeit),1595590604909,9.834633333333333,main,132
1649,,3442,21,stimuli/sounds/phone_label_female.mp3,,-,correct,Graduated High School,1595591194987,yes,156,female,phone,smartphone,q,p,q,german and turkish,match,2,no,stimuli/images/phone_smartphone_2.jpg,yes,,phone,female,label,Fri Jul 24 2020 13:36:44 GMT+0200 (Mitteleuropäische Sommerzeit),1595590604909,9.834633333333333,main,133
1649,,3296,21,stimuli/sounds/bird_sound_robin.mp3,,-,correct,Graduated High School,1595591194987,no,156,female,dog,chihuahua,q,p,p,german and turkish,mismatch,1,no,stimuli/images/dog_chihuahua_1.jpg,yes,,bird,robin,sound,Fri Jul 24 2020 13:36:44 GMT+0200 (Mitteleuropäische Sommerzeit),1595590604909,9.834633333333333,main,134
1649,,3669,21,stimuli/sounds/typing_sound_typewriter.mp3,,-,correct,Graduated High School,1595591194987,no,156,female,car,v8,q,p,p,german and turkish,mismatch,1,no,stimuli/images/car_v8_1.jpg,yes,,typing,typewriter,sound,Fri Jul 24 2020 13:36:44 GMT+0200 (Mitteleuropäische Sommerzeit),1595590604909,9.834633333333333,main,135
1649,,2878,21,stimuli/sounds/bird_label_female.mp3,,-,correct,Graduated High School,1595591194987,no,156,female,car,v8,q,p,p,german and turkish,mismatch,1,no,stimuli/images/car_v8_1.jpg,yes,,bird,female,label,Fri Jul 24 2020 13:36:44 GMT+0200 (Mitteleuropäische Sommerzeit),1595590604909,9.834633333333333,main,136
1649,,3332,21,stimuli/sounds/bird_label_male.mp3,,-,correct,Graduated High School,1595591194987,yes,156,female,bird,robin,q,p,q,german and turkish,match,1,no,stimuli/images/bird_robin_1.jpg,yes,,bird,male,label,Fri Jul 24 2020 13:36:44 GMT+0200 (Mitteleuropäische Sommerzeit),1595590604909,9.834633333333333,main,137
1649,,3090,21,stimuli/sounds/dog_label_female.mp3,,-,correct,Graduated High School,1595591194987,yes,156,female,dog,rottweiler,q,p,q,german and turkish,match,1,no,stimuli/images/dog_rottweiler_1.jpg,yes,,dog,female,label,Fri Jul 24 2020 13:36:44 GMT+0200 (Mitteleuropäische Sommerzeit),1595590604909,9.834633333333333,main,138
1649,,3341,21,stimuli/sounds/car_label_female.mp3,,-,correct,Graduated High School,1595591194987,no,156,female,bird,seagull,q,p,p,german and turkish,mismatch,1,no,stimuli/images/bird_seagull_1.jpg,yes,,car,female,label,Fri Jul 24 2020 13:36:44 GMT+0200 (Mitteleuropäische Sommerzeit),1595590604909,9.834633333333333,main,139
1649,,3175,21,stimuli/sounds/bird_sound_seagull.mp3,,incongruent,correct,Graduated High School,1595591194987,yes,156,female,bird,robin,q,p,q,german and turkish,match,2,no,stimuli/images/bird_robin_2.jpg,yes,,bird,seagull,sound,Fri Jul 24 2020 13:36:44 GMT+0200 (Mitteleuropäische Sommerzeit),1595590604909,9.834633333333333,main,140
1649,,2864,21,stimuli/sounds/dog_label_female.mp3,,-,correct,Graduated High School,1595591194987,no,156,female,phone,smartphone,q,p,p,german and turkish,mismatch,2,no,stimuli/images/phone_smartphone_2.jpg,yes,,dog,female,label,Fri Jul 24 2020 13:36:44 GMT+0200 (Mitteleuropäische Sommerzeit),1595590604909,9.834633333333333,main,141
1649,,2819,21,stimuli/sounds/instrument_label_male.mp3,,-,incorrect,Graduated High School,1595591194987,yes,156,female,instrument,cello,q,p,p,german and turkish,match,2,no,stimuli/images/instrument_cello_2.jpg,yes,,instrument,male,label,Fri Jul 24 2020 13:36:44 GMT+0200 (Mitteleuropäische Sommerzeit),1595590604909,9.834633333333333,main,142
1649,,3013,21,stimuli/sounds/bird_label_male.mp3,,-,correct,Graduated High School,1595591194987,no,156,female,dog,chihuahua,q,p,p,german and turkish,mismatch,2,no,stimuli/images/dog_chihuahua_2.jpg,yes,,bird,male,label,Fri Jul 24 2020 13:36:44 GMT+0200 (Mitteleuropäische Sommerzeit),1595590604909,9.834633333333333,main,143
1649,,3056,21,stimuli/sounds/car_sound_ford.mp3,,-,correct,Graduated High School,1595591194987,no,156,female,instrument,violin,q,p,p,german and turkish,mismatch,2,no,stimuli/images/instrument_violin_2.jpg,yes,,car,ford,sound,Fri Jul 24 2020 13:36:44 GMT+0200 (Mitteleuropäische Sommerzeit),1595590604909,9.834633333333333,main,144
1639,,5579,59,stimuli/sounds/dog_sound_chihuahua.mp3,,congruent,correct,Graduated College,1595580850625,yes,156,female,dog,chihuahua,q,p,q,german,match,1,no,stimuli/images/dog_chihuahua_1.jpg,yes,,dog,chihuahua,sound,Fri Jul 24 2020 10:40:27 GMT+0200 (Mitteleuropäische Sommerzeit),1595580027970,13.710916666666666,training,1
1639,,17955,59,stimuli/sounds/bird_label_female.mp3,,-,correct,Graduated College,1595580850625,yes,156,female,bird,seagull,q,p,q,german,match,1,no,stimuli/images/bird_seagull_1.jpg,yes,,bird,female,label,Fri Jul 24 2020 10:40:27 GMT+0200 (Mitteleuropäische Sommerzeit),1595580027970,13.710916666666666,training,2
1639,,48165,59,stimuli/sounds/dog_sound_rottweiler.mp3,,incongruent,correct,Graduated College,1595580850625,yes,156,female,dog,chihuahua,q,p,q,german,match,1,no,stimuli/images/dog_chihuahua_1.jpg,yes,,dog,rottweiler,sound,Fri Jul 24 2020 10:40:27 GMT+0200 (Mitteleuropäische Sommerzeit),1595580027970,13.710916666666666,training,3
1639,,33911,59,stimuli/sounds/phone_sound_rotary.mp3,,-,correct,Graduated College,1595580850625,no,156,female,bird,robin,q,p,p,german,mismatch,2,no,stimuli/images/bird_robin_2.jpg,yes,,phone,rotary,sound,Fri Jul 24 2020 10:40:27 GMT+0200 (Mitteleuropäische Sommerzeit),1595580027970,13.710916666666666,training,4
1639,,6498,59,stimuli/sounds/typing_label_male.mp3,,-,correct,Graduated College,1595580850625,no,156,female,car,ford,q,p,p,german,mismatch,2,no,stimuli/images/car_ford_2.jpg,yes,,typing,male,label,Fri Jul 24 2020 10:40:27 GMT+0200 (Mitteleuropäische Sommerzeit),1595580027970,13.710916666666666,training,5
1639,,6950,59,stimuli/sounds/car_sound_v8.mp3,,-,correct,Graduated College,1595580850625,no,156,female,phone,smartphone,q,p,p,german,mismatch,2,no,stimuli/images/phone_smartphone_2.jpg,yes,,car,v8,sound,Fri Jul 24 2020 10:40:27 GMT+0200 (Mitteleuropäische Sommerzeit),1595580027970,13.710916666666666,training,6
1639,,3921,59,stimuli/sounds/car_label_female.mp3,,-,correct,Graduated College,1595580850625,no,156,female,instrument,cello,q,p,p,german,mismatch,2,no,stimuli/images/instrument_cello_2.jpg,yes,,car,female,label,Fri Jul 24 2020 10:40:27 GMT+0200 (Mitteleuropäische Sommerzeit),1595580027970,13.710916666666666,main,1
1639,,4455,59,stimuli/sounds/phone_sound_smartphone.mp3,,-,correct,Graduated College,1595580850625,no,156,female,typing,keyboard,q,p,p,german,mismatch,2,no,stimuli/images/typing_keyboard_2.jpg,yes,,phone,smartphone,sound,Fri Jul 24 2020 10:40:27 GMT+0200 (Mitteleuropäische Sommerzeit),1595580027970,13.710916666666666,main,2
1639,,4375,59,stimuli/sounds/typing_label_female.mp3,,-,incorrect,Graduated College,1595580850625,yes,156,female,typing,typewriter,q,p,p,german,match,2,no,stimuli/images/typing_typewriter_2.jpg,yes,,typing,female,label,Fri Jul 24 2020 10:40:27 GMT+0200 (Mitteleuropäische Sommerzeit),1595580027970,13.710916666666666,main,3
1639,,4161,59,stimuli/sounds/instrument_label_male.mp3,,-,correct,Graduated College,1595580850625,no,156,female,typing,keyboard,q,p,p,german,mismatch,1,no,stimuli/images/typing_keyboard_1.jpg,yes,,instrument,male,label,Fri Jul 24 2020 10:40:27 GMT+0200 (Mitteleuropäische Sommerzeit),1595580027970,13.710916666666666,main,4
1639,,4364,59,stimuli/sounds/instrument_sound_cello.mp3,,-,correct,Graduated College,1595580850625,no,156,female,typing,typewriter,q,p,p,german,mismatch,1,no,stimuli/images/typing_typewriter_1.jpg,yes,,instrument,cello,sound,Fri Jul 24 2020 10:40:27 GMT+0200 (Mitteleuropäische Sommerzeit),1595580027970,13.710916666666666,main,5
1639,,3257,59,stimuli/sounds/typing_sound_keyboard.mp3,,incongruent,correct,Graduated College,1595580850625,yes,156,female,typing,typewriter,q,p,q,german,match,2,no,stimuli/images/typing_typewriter_2.jpg,yes,,typing,keyboard,sound,Fri Jul 24 2020 10:40:27 GMT+0200 (Mitteleuropäische Sommerzeit),1595580027970,13.710916666666666,main,6
1639,,3189,59,stimuli/sounds/car_sound_ford.mp3,,congruent,incorrect,Graduated College,1595580850625,yes,156,female,car,ford,q,p,p,german,match,2,no,stimuli/images/car_ford_2.jpg,yes,,car,ford,sound,Fri Jul 24 2020 10:40:27 GMT+0200 (Mitteleuropäische Sommerzeit),1595580027970,13.710916666666666,main,7
1639,,4433,59,stimuli/sounds/typing_sound_keyboard.mp3,,congruent,correct,Graduated College,1595580850625,yes,156,female,typing,keyboard,q,p,q,german,match,2,no,stimuli/images/typing_keyboard_2.jpg,yes,,typing,keyboard,sound,Fri Jul 24 2020 10:40:27 GMT+0200 (Mitteleuropäische Sommerzeit),1595580027970,13.710916666666666,main,8
1639,,3663,59,stimuli/sounds/car_label_male.mp3,,-,correct,Graduated College,1595580850625,yes,156,female,car,ford,q,p,q,german,match,1,no,stimuli/images/car_ford_1.jpg,yes,,car,male,label,Fri Jul 24 2020 10:40:27 GMT+0200 (Mitteleuropäische Sommerzeit),1595580027970,13.710916666666666,main,9
1639,,5072,59,stimuli/sounds/instrument_label_female.mp3,,-,correct,Graduated College,1595580850625,no,156,female,phone,rotary,q,p,p,german,mismatch,2,no,stimuli/images/phone_rotary_2.jpg,yes,,instrument,female,label,Fri Jul 24 2020 10:40:27 GMT+0200 (Mitteleuropäische Sommerzeit),1595580027970,13.710916666666666,main,10
1639,,4955,59,stimuli/sounds/dog_label_female.mp3,,-,correct,Graduated College,1595580850625,yes,156,female,dog,rottweiler,q,p,q,german,match,2,no,stimuli/images/dog_rottweiler_2.jpg,yes,,dog,female,label,Fri Jul 24 2020 10:40:27 GMT+0200 (Mitteleuropäische Sommerzeit),1595580027970,13.710916666666666,main,11
1639,,4476,59,stimuli/sounds/car_sound_v8.mp3,,congruent,correct,Graduated College,1595580850625,yes,156,female,car,v8,q,p,q,german,match,1,no,stimuli/images/car_v8_1.jpg,yes,,car,v8,sound,Fri Jul 24 2020 10:40:27 GMT+0200 (Mitteleuropäische Sommerzeit),1595580027970,13.710916666666666,main,12
1639,,3653,59,stimuli/sounds/bird_label_female.mp3,,-,correct,Graduated College,1595580850625,yes,156,female,bird,robin,q,p,q,german,match,2,no,stimuli/images/bird_robin_2.jpg,yes,,bird,female,label,Fri Jul 24 2020 10:40:27 GMT+0200 (Mitteleuropäische Sommerzeit),1595580027970,13.710916666666666,main,13
1639,,4097,59,stimuli/sounds/phone_sound_smartphone.mp3,,congruent,correct,Graduated College,1595580850625,yes,156,female,phone,smartphone,q,p,q,german,match,1,no,stimuli/images/phone_smartphone_1.jpg,yes,,phone,smartphone,sound,Fri Jul 24 2020 10:40:27 GMT+0200 (Mitteleuropäische Sommerzeit),1595580027970,13.710916666666666,main,14
1639,,3670,59,stimuli/sounds/bird_label_male.mp3,,-,correct,Graduated College,1595580850625,no,156,female,dog,rottweiler,q,p,p,german,mismatch,1,no,stimuli/images/dog_rottweiler_1.jpg,yes,,bird,male,label,Fri Jul 24 2020 10:40:27 GMT+0200 (Mitteleuropäische Sommerzeit),1595580027970,13.710916666666666,main,15
1639,,4035,59,stimuli/sounds/instrument_label_female.mp3,,-,correct,Graduated College,1595580850625,no,156,female,bird,robin,q,p,p,german,mismatch,2,no,stimuli/images/bird_robin_2.jpg,yes,,instrument,female,label,Fri Jul 24 2020 10:40:27 GMT+0200 (Mitteleuropäische Sommerzeit),1595580027970,13.710916666666666,main,16
1639,,5688,59,stimuli/sounds/typing_label_male.mp3,,-,correct,Graduated College,1595580850625,no,156,female,phone,smartphone,q,p,p,german,mismatch,2,no,stimuli/images/phone_smartphone_2.jpg,yes,,typing,male,label,Fri Jul 24 2020 10:40:27 GMT+0200 (Mitteleuropäische Sommerzeit),1595580027970,13.710916666666666,main,17
1639,,3960,59,stimuli/sounds/phone_label_female.mp3,,-,correct,Graduated College,1595580850625,yes,156,female,phone,rotary,q,p,q,german,match,1,no,stimuli/images/phone_rotary_1.jpg,yes,,phone,female,label,Fri Jul 24 2020 10:40:27 GMT+0200 (Mitteleuropäische Sommerzeit),1595580027970,13.710916666666666,main,18
1639,,3750,59,stimuli/sounds/typing_sound_typewriter.mp3,,-,correct,Graduated College,1595580850625,no,156,female,instrument,violin,q,p,p,german,mismatch,2,no,stimuli/images/instrument_violin_2.jpg,yes,,typing,typewriter,sound,Fri Jul 24 2020 10:40:27 GMT+0200 (Mitteleuropäische Sommerzeit),1595580027970,13.710916666666666,main,19
1639,,3143,59,stimuli/sounds/bird_label_female.mp3,,-,correct,Graduated College,1595580850625,no,156,female,car,ford,q,p,p,german,mismatch,2,no,stimuli/images/car_ford_2.jpg,yes,,bird,female,label,Fri Jul 24 2020 10:40:27 GMT+0200 (Mitteleuropäische Sommerzeit),1595580027970,13.710916666666666,main,20
1639,,3252,59,stimuli/sounds/bird_sound_seagull.mp3,,congruent,correct,Graduated College,1595580850625,yes,156,female,bird,seagull,q,p,q,german,match,2,no,stimuli/images/bird_seagull_2.jpg,yes,,bird,seagull,sound,Fri Jul 24 2020 10:40:27 GMT+0200 (Mitteleuropäische Sommerzeit),1595580027970,13.710916666666666,main,21
1639,,3434,59,stimuli/sounds/instrument_label_male.mp3,,-,correct,Graduated College,1595580850625,yes,156,female,instrument,cello,q,p,q,german,match,1,no,stimuli/images/instrument_cello_1.jpg,yes,,instrument,male,label,Fri Jul 24 2020 10:40:27 GMT+0200 (Mitteleuropäische Sommerzeit),1595580027970,13.710916666666666,main,22
1639,,4218,59,stimuli/sounds/typing_label_male.mp3,,-,correct,Graduated College,1595580850625,no,156,female,car,v8,q,p,p,german,mismatch,1,no,stimuli/images/car_v8_1.jpg,yes,,typing,male,label,Fri Jul 24 2020 10:40:27 GMT+0200 (Mitteleuropäische Sommerzeit),1595580027970,13.710916666666666,main,23
1639,,3233,59,stimuli/sounds/car_label_female.mp3,,-,correct,Graduated College,1595580850625,yes,156,female,car,v8,q,p,q,german,match,1,no,stimuli/images/car_v8_1.jpg,yes,,car,female,label,Fri Jul 24 2020 10:40:27 GMT+0200 (Mitteleuropäische Sommerzeit),1595580027970,13.710916666666666,main,24
1639,,3072,59,stimuli/sounds/phone_sound_rotary.mp3,,-,correct,Graduated College,1595580850625,no,156,female,instrument,violin,q,p,p,german,mismatch,2,no,stimuli/images/instrument_violin_2.jpg,yes,,phone,rotary,sound,Fri Jul 24 2020 10:40:27 GMT+0200 (Mitteleuropäische Sommerzeit),1595580027970,13.710916666666666,main,25
1639,,4355,59,stimuli/sounds/typing_sound_typewriter.mp3,,-,correct,Graduated College,1595580850625,no,156,female,phone,smartphone,q,p,p,german,mismatch,2,no,stimuli/images/phone_smartphone_2.jpg,yes,,typing,typewriter,sound,Fri Jul 24 2020 10:40:27 GMT+0200 (Mitteleuropäische Sommerzeit),1595580027970,13.710916666666666,main,26
1639,,3696,59,stimuli/sounds/phone_sound_rotary.mp3,,incongruent,correct,Graduated College,1595580850625,yes,156,female,phone,smartphone,q,p,q,german,match,1,no,stimuli/images/phone_smartphone_1.jpg,yes,,phone,rotary,sound,Fri Jul 24 2020 10:40:27 GMT+0200 (Mitteleuropäische Sommerzeit),1595580027970,13.710916666666666,main,27
1639,,4702,59,stimuli/sounds/typing_sound_typewriter.mp3,,incongruent,correct,Graduated College,1595580850625,yes,156,female,typing,keyboard,q,p,q,german,match,2,no,stimuli/images/typing_keyboard_2.jpg,yes,,typing,typewriter,sound,Fri Jul 24 2020 10:40:27 GMT+0200 (Mitteleuropäische Sommerzeit),1595580027970,13.710916666666666,main,28
1639,,3598,59,stimuli/sounds/car_label_female.mp3,,-,correct,Graduated College,1595580850625,no,156,female,typing,keyboard,q,p,p,german,mismatch,2,no,stimuli/images/typing_keyboard_2.jpg,yes,,car,female,label,Fri Jul 24 2020 10:40:27 GMT+0200 (Mitteleuropäische Sommerzeit),1595580027970,13.710916666666666,main,29
1639,,3480,59,stimuli/sounds/bird_sound_robin.mp3,,incongruent,correct,Graduated College,1595580850625,yes,156,female,bird,seagull,q,p,q,german,match,2,no,stimuli/images/bird_seagull_2.jpg,yes,,bird,robin,sound,Fri Jul 24 2020 10:40:27 GMT+0200 (Mitteleuropäische Sommerzeit),1595580027970,13.710916666666666,main,30
1639,,3626,59,stimuli/sounds/car_sound_v8.mp3,,incongruent,correct,Graduated College,1595580850625,yes,156,female,car,ford,q,p,q,german,match,1,no,stimuli/images/car_ford_1.jpg,yes,,car,v8,sound,Fri Jul 24 2020 10:40:27 GMT+0200 (Mitteleuropäische Sommerzeit),1595580027970,13.710916666666666,main,31
1639,,2832,59,stimuli/sounds/phone_sound_rotary.mp3,,congruent,correct,Graduated College,1595580850625,yes,156,female,phone,rotary,q,p,q,german,match,1,no,stimuli/images/phone_rotary_1.jpg,yes,,phone,rotary,sound,Fri Jul 24 2020 10:40:27 GMT+0200 (Mitteleuropäische Sommerzeit),1595580027970,13.710916666666666,main,32
1639,,3531,59,stimuli/sounds/car_label_male.mp3,,-,correct,Graduated College,1595580850625,no,156,female,bird,seagull,q,p,p,german,mismatch,2,no,stimuli/images/bird_seagull_2.jpg,yes,,car,male,label,Fri Jul 24 2020 10:40:27 GMT+0200 (Mitteleuropäische Sommerzeit),1595580027970,13.710916666666666,main,33
1639,,3313,59,stimuli/sounds/car_label_male.mp3,,-,correct,Graduated College,1595580850625,yes,156,female,car,v8,q,p,q,german,match,1,no,stimuli/images/car_v8_1.jpg,yes,,car,male,label,Fri Jul 24 2020 10:40:27 GMT+0200 (Mitteleuropäische Sommerzeit),1595580027970,13.710916666666666,main,34
1639,,3320,59,stimuli/sounds/phone_label_female.mp3,,-,correct,Graduated College,1595580850625,no,156,female,typing,typewriter,q,p,p,german,mismatch,1,no,stimuli/images/typing_typewriter_1.jpg,yes,,phone,female,label,Fri Jul 24 2020 10:40:27 GMT+0200 (Mitteleuropäische Sommerzeit),1595580027970,13.710916666666666,main,35
1639,,3522,59,stimuli/sounds/typing_label_female.mp3,,-,correct,Graduated College,1595580850625,no,156,female,instrument,cello,q,p,p,german,mismatch,2,no,stimuli/images/instrument_cello_2.jpg,yes,,typing,female,label,Fri Jul 24 2020 10:40:27 GMT+0200 (Mitteleuropäische Sommerzeit),1595580027970,13.710916666666666,main,36
1639,,3877,59,stimuli/sounds/instrument_sound_violin.mp3,,-,correct,Graduated College,1595580850625,no,156,female,bird,seagull,q,p,p,german,mismatch,1,no,stimuli/images/bird_seagull_1.jpg,yes,,instrument,violin,sound,Fri Jul 24 2020 10:40:27 GMT+0200 (Mitteleuropäische Sommerzeit),1595580027970,13.710916666666666,main,37
1639,,4049,59,stimuli/sounds/instrument_sound_cello.mp3,,-,correct,Graduated College,1595580850625,no,156,female,typing,typewriter,q,p,p,german,mismatch,1,no,stimuli/images/typing_typewriter_1.jpg,yes,,instrument,cello,sound,Fri Jul 24 2020 10:40:27 GMT+0200 (Mitteleuropäische Sommerzeit),1595580027970,13.710916666666666,main,38
1639,,3664,59,stimuli/sounds/dog_sound_rottweiler.mp3,,incongruent,correct,Graduated College,1595580850625,yes,156,female,dog,chihuahua,q,p,q,german,match,1,no,stimuli/images/dog_chihuahua_1.jpg,yes,,dog,rottweiler,sound,Fri Jul 24 2020 10:40:27 GMT+0200 (Mitteleuropäische Sommerzeit),1595580027970,13.710916666666666,main,39
1639,,3824,59,stimuli/sounds/phone_sound_rotary.mp3,,incongruent,correct,Graduated College,1595580850625,yes,156,female,phone,smartphone,q,p,q,german,match,1,no,stimuli/images/phone_smartphone_1.jpg,yes,,phone,rotary,sound,Fri Jul 24 2020 10:40:27 GMT+0200 (Mitteleuropäische Sommerzeit),1595580027970,13.710916666666666,main,40
1639,,3203,59,stimuli/sounds/phone_label_female.mp3,,-,correct,Graduated College,1595580850625,yes,156,female,phone,smartphone,q,p,q,german,match,1,no,stimuli/images/phone_smartphone_1.jpg,yes,,phone,female,label,Fri Jul 24 2020 10:40:27 GMT+0200 (Mitteleuropäische Sommerzeit),1595580027970,13.710916666666666,main,41
1639,,3675,59,stimuli/sounds/typing_label_female.mp3,,-,correct,Graduated College,1595580850625,yes,156,female,typing,typewriter,q,p,q,german,match,2,no,stimuli/images/typing_typewriter_2.jpg,yes,,typing,female,label,Fri Jul 24 2020 10:40:27 GMT+0200 (Mitteleuropäische Sommerzeit),1595580027970,13.710916666666666,main,42
1639,,3539,59,stimuli/sounds/typing_sound_typewriter.mp3,,congruent,correct,Graduated College,1595580850625,yes,156,female,typing,typewriter,q,p,q,german,match,1,no,stimuli/images/typing_typewriter_1.jpg,yes,,typing,typewriter,sound,Fri Jul 24 2020 10:40:27 GMT+0200 (Mitteleuropäische Sommerzeit),1595580027970,13.710916666666666,main,43
1639,,3602,59,stimuli/sounds/dog_label_male.mp3,,-,correct,Graduated College,1595580850625,no,156,female,instrument,cello,q,p,p,german,mismatch,1,no,stimuli/images/instrument_cello_1.jpg,yes,,dog,male,label,Fri Jul 24 2020 10:40:27 GMT+0200 (Mitteleuropäische Sommerzeit),1595580027970,13.710916666666666,main,44
1639,,4171,59,stimuli/sounds/phone_label_male.mp3,,-,correct,Graduated College,1595580850625,no,156,female,instrument,cello,q,p,p,german,mismatch,1,no,stimuli/images/instrument_cello_1.jpg,yes,,phone,male,label,Fri Jul 24 2020 10:40:27 GMT+0200 (Mitteleuropäische Sommerzeit),1595580027970,13.710916666666666,main,45
1639,,3540,59,stimuli/sounds/instrument_label_female.mp3,,-,correct,Graduated College,1595580850625,yes,156,female,instrument,violin,q,p,q,german,match,1,no,stimuli/images/instrument_violin_1.jpg,yes,,instrument,female,label,Fri Jul 24 2020 10:40:27 GMT+0200 (Mitteleuropäische Sommerzeit),1595580027970,13.710916666666666,main,46
1639,,3420,59,stimuli/sounds/car_sound_v8.mp3,,-,correct,Graduated College,1595580850625,no,156,female,typing,typewriter,q,p,p,german,mismatch,1,no,stimuli/images/typing_typewriter_1.jpg,yes,,car,v8,sound,Fri Jul 24 2020 10:40:27 GMT+0200 (Mitteleuropäische Sommerzeit),1595580027970,13.710916666666666,main,47
1639,,3184,59,stimuli/sounds/phone_sound_smartphone.mp3,,-,correct,Graduated College,1595580850625,no,156,female,car,v8,q,p,p,german,mismatch,2,no,stimuli/images/car_v8_2.jpg,yes,,phone,smartphone,sound,Fri Jul 24 2020 10:40:27 GMT+0200 (Mitteleuropäische Sommerzeit),1595580027970,13.710916666666666,main,48
1639,,2898,59,stimuli/sounds/bird_sound_robin.mp3,,incongruent,correct,Graduated College,1595580850625,yes,156,female,bird,seagull,q,p,q,german,match,2,no,stimuli/images/bird_seagull_2.jpg,yes,,bird,robin,sound,Fri Jul 24 2020 10:40:27 GMT+0200 (Mitteleuropäische Sommerzeit),1595580027970,13.710916666666666,main,49
1639,,3523,59,stimuli/sounds/bird_sound_robin.mp3,,-,correct,Graduated College,1595580850625,no,156,female,phone,rotary,q,p,p,german,mismatch,2,no,stimuli/images/phone_rotary_2.jpg,yes,,bird,robin,sound,Fri Jul 24 2020 10:40:27 GMT+0200 (Mitteleuropäische Sommerzeit),1595580027970,13.710916666666666,main,50
1639,,3052,59,stimuli/sounds/dog_sound_chihuahua.mp3,,congruent,correct,Graduated College,1595580850625,yes,156,female,dog,chihuahua,q,p,q,german,match,2,no,stimuli/images/dog_chihuahua_2.jpg,yes,,dog,chihuahua,sound,Fri Jul 24 2020 10:40:27 GMT+0200 (Mitteleuropäische Sommerzeit),1595580027970,13.710916666666666,main,51
1639,,3303,59,stimuli/sounds/instrument_label_male.mp3,,-,correct,Graduated College,1595580850625,yes,156,female,instrument,violin,q,p,q,german,match,1,no,stimuli/images/instrument_violin_1.jpg,yes,,instrument,male,label,Fri Jul 24 2020 10:40:27 GMT+0200 (Mitteleuropäische Sommerzeit),1595580027970,13.710916666666666,main,52
1639,,3350,59,stimuli/sounds/bird_sound_seagull.mp3,,incongruent,correct,Graduated College,1595580850625,yes,156,female,bird,robin,q,p,q,german,match,2,no,stimuli/images/bird_robin_2.jpg,yes,,bird,seagull,sound,Fri Jul 24 2020 10:40:27 GMT+0200 (Mitteleuropäische Sommerzeit),1595580027970,13.710916666666666,main,53
1639,,3025,59,stimuli/sounds/bird_sound_seagull.mp3,,congruent,correct,Graduated College,1595580850625,yes,156,female,bird,seagull,q,p,q,german,match,1,no,stimuli/images/bird_seagull_1.jpg,yes,,bird,seagull,sound,Fri Jul 24 2020 10:40:27 GMT+0200 (Mitteleuropäische Sommerzeit),1595580027970,13.710916666666666,main,54
1639,,6658,59,stimuli/sounds/typing_label_male.mp3,,-,correct,Graduated College,1595580850625,yes,156,female,typing,keyboard,q,p,q,german,match,1,no,stimuli/images/typing_keyboard_1.jpg,yes,,typing,male,label,Fri Jul 24 2020 10:40:27 GMT+0200 (Mitteleuropäische Sommerzeit),1595580027970,13.710916666666666,main,55
1639,,3169,59,stimuli/sounds/dog_label_female.mp3,,-,correct,Graduated College,1595580850625,yes,156,female,dog,chihuahua,q,p,q,german,match,1,no,stimuli/images/dog_chihuahua_1.jpg,yes,,dog,female,label,Fri Jul 24 2020 10:40:27 GMT+0200 (Mitteleuropäische Sommerzeit),1595580027970,13.710916666666666,main,56
1639,,3137,59,stimuli/sounds/dog_sound_chihuahua.mp3,,incongruent,correct,Graduated College,1595580850625,yes,156,female,dog,rottweiler,q,p,q,german,match,2,no,stimuli/images/dog_rottweiler_2.jpg,yes,,dog,chihuahua,sound,Fri Jul 24 2020 10:40:27 GMT+0200 (Mitteleuropäische Sommerzeit),1595580027970,13.710916666666666,main,57
1639,,3738,59,stimuli/sounds/phone_sound_smartphone.mp3,,congruent,correct,Graduated College,1595580850625,yes,156,female,phone,smartphone,q,p,q,german,match,2,no,stimuli/images/phone_smartphone_2.jpg,yes,,phone,smartphone,sound,Fri Jul 24 2020 10:40:27 GMT+0200 (Mitteleuropäische Sommerzeit),1595580027970,13.710916666666666,main,58
1639,,3844,59,stimuli/sounds/bird_label_male.mp3,,-,correct,Graduated College,1595580850625,no,156,female,phone,smartphone,q,p,p,german,mismatch,1,no,stimuli/images/phone_smartphone_1.jpg,yes,,bird,male,label,Fri Jul 24 2020 10:40:27 GMT+0200 (Mitteleuropäische Sommerzeit),1595580027970,13.710916666666666,main,59
1639,,4007,59,stimuli/sounds/bird_sound_robin.mp3,,-,correct,Graduated College,1595580850625,no,156,female,instrument,cello,q,p,p,german,mismatch,2,no,stimuli/images/instrument_cello_2.jpg,yes,,bird,robin,sound,Fri Jul 24 2020 10:40:27 GMT+0200 (Mitteleuropäische Sommerzeit),1595580027970,13.710916666666666,main,60
1639,,4418,59,stimuli/sounds/typing_sound_keyboard.mp3,,congruent,correct,Graduated College,1595580850625,yes,156,female,typing,keyboard,q,p,q,german,match,2,no,stimuli/images/typing_keyboard_2.jpg,yes,,typing,keyboard,sound,Fri Jul 24 2020 10:40:27 GMT+0200 (Mitteleuropäische Sommerzeit),1595580027970,13.710916666666666,main,61
1639,,3195,59,stimuli/sounds/phone_label_male.mp3,,-,correct,Graduated College,1595580850625,yes,156,female,phone,rotary,q,p,q,german,match,1,no,stimuli/images/phone_rotary_1.jpg,yes,,phone,male,label,Fri Jul 24 2020 10:40:27 GMT+0200 (Mitteleuropäische Sommerzeit),1595580027970,13.710916666666666,main,62
1639,,3126,59,stimuli/sounds/bird_label_male.mp3,,-,correct,Graduated College,1595580850625,no,156,female,phone,rotary,q,p,p,german,mismatch,1,no,stimuli/images/phone_rotary_1.jpg,yes,,bird,male,label,Fri Jul 24 2020 10:40:27 GMT+0200 (Mitteleuropäische Sommerzeit),1595580027970,13.710916666666666,main,63
1639,,3150,59,stimuli/sounds/bird_label_male.mp3,,-,correct,Graduated College,1595580850625,yes,156,female,bird,seagull,q,p,q,german,match,1,no,stimuli/images/bird_seagull_1.jpg,yes,,bird,male,label,Fri Jul 24 2020 10:40:27 GMT+0200 (Mitteleuropäische Sommerzeit),1595580027970,13.710916666666666,main,64
1639,,3195,59,stimuli/sounds/phone_label_female.mp3,,-,correct,Graduated College,1595580850625,yes,156,female,phone,smartphone,q,p,q,german,match,1,no,stimuli/images/phone_smartphone_1.jpg,yes,,phone,female,label,Fri Jul 24 2020 10:40:27 GMT+0200 (Mitteleuropäische Sommerzeit),1595580027970,13.710916666666666,main,65
1639,,3394,59,stimuli/sounds/car_label_male.mp3,,-,correct,Graduated College,1595580850625,no,156,female,dog,rottweiler,q,p,p,german,mismatch,1,no,stimuli/images/dog_rottweiler_1.jpg,yes,,car,male,label,Fri Jul 24 2020 10:40:27 GMT+0200 (Mitteleuropäische Sommerzeit),1595580027970,13.710916666666666,main,66
1639,,2811,59,stimuli/sounds/instrument_sound_violin.mp3,,incongruent,correct,Graduated College,1595580850625,yes,156,female,instrument,cello,q,p,q,german,match,2,no,stimuli/images/instrument_cello_2.jpg,yes,,instrument,violin,sound,Fri Jul 24 2020 10:40:27 GMT+0200 (Mitteleuropäische Sommerzeit),1595580027970,13.710916666666666,main,67
1639,,3384,59,stimuli/sounds/dog_label_female.mp3,,-,correct,Graduated College,1595580850625,no,156,female,phone,smartphone,q,p,p,german,mismatch,2,no,stimuli/images/phone_smartphone_2.jpg,yes,,dog,female,label,Fri Jul 24 2020 10:40:27 GMT+0200 (Mitteleuropäische Sommerzeit),1595580027970,13.710916666666666,main,68
1639,,3508,59,stimuli/sounds/dog_label_male.mp3,,-,correct,Graduated College,1595580850625,no,156,female,typing,keyboard,q,p,p,german,mismatch,1,no,stimuli/images/typing_keyboard_1.jpg,yes,,dog,male,label,Fri Jul 24 2020 10:40:27 GMT+0200 (Mitteleuropäische Sommerzeit),1595580027970,13.710916666666666,main,69
1639,,3144,59,stimuli/sounds/instrument_sound_cello.mp3,,-,correct,Graduated College,1595580850625,no,156,female,typing,typewriter,q,p,p,german,mismatch,2,no,stimuli/images/typing_typewriter_2.jpg,yes,,instrument,cello,sound,Fri Jul 24 2020 10:40:27 GMT+0200 (Mitteleuropäische Sommerzeit),1595580027970,13.710916666666666,main,70
1639,,2979,59,stimuli/sounds/dog_label_female.mp3,,-,correct,Graduated College,1595580850625,no,156,female,car,v8,q,p,p,german,mismatch,2,no,stimuli/images/car_v8_2.jpg,yes,,dog,female,label,Fri Jul 24 2020 10:40:27 GMT+0200 (Mitteleuropäische Sommerzeit),1595580027970,13.710916666666666,main,71
1639,,3192,59,stimuli/sounds/phone_sound_smartphone.mp3,,-,correct,Graduated College,1595580850625,no,156,female,car,v8,q,p,p,german,mismatch,1,no,stimuli/images/car_v8_1.jpg,yes,,phone,smartphone,sound,Fri Jul 24 2020 10:40:27 GMT+0200 (Mitteleuropäische Sommerzeit),1595580027970,13.710916666666666,main,72
1639,,3342,59,stimuli/sounds/phone_sound_rotary.mp3,,-,correct,Graduated College,1595580850625,no,156,female,typing,keyboard,q,p,p,german,mismatch,2,no,stimuli/images/typing_keyboard_2.jpg,yes,,phone,rotary,sound,Fri Jul 24 2020 10:40:27 GMT+0200 (Mitteleuropäische Sommerzeit),1595580027970,13.710916666666666,main,73
1639,,3395,59,stimuli/sounds/phone_sound_rotary.mp3,,-,correct,Graduated College,1595580850625,no,156,female,instrument,violin,q,p,p,german,mismatch,1,no,stimuli/images/instrument_violin_1.jpg,yes,,phone,rotary,sound,Fri Jul 24 2020 10:40:27 GMT+0200 (Mitteleuropäische Sommerzeit),1595580027970,13.710916666666666,main,74
1639,,2904,59,stimuli/sounds/instrument_label_male.mp3,,-,correct,Graduated College,1595580850625,yes,156,female,instrument,violin,q,p,q,german,match,2,no,stimuli/images/instrument_violin_2.jpg,yes,,instrument,male,label,Fri Jul 24 2020 10:40:27 GMT+0200 (Mitteleuropäische Sommerzeit),1595580027970,13.710916666666666,main,75
1639,,3005,59,stimuli/sounds/bird_sound_seagull.mp3,,-,correct,Graduated College,1595580850625,no,156,female,car,v8,q,p,p,german,mismatch,1,no,stimuli/images/car_v8_1.jpg,yes,,bird,seagull,sound,Fri Jul 24 2020 10:40:27 GMT+0200 (Mitteleuropäische Sommerzeit),1595580027970,13.710916666666666,main,76
1639,,3406,59,stimuli/sounds/bird_sound_robin.mp3,,-,correct,Graduated College,1595580850625,no,156,female,typing,typewriter,q,p,p,german,mismatch,1,no,stimuli/images/typing_typewriter_1.jpg,yes,,bird,robin,sound,Fri Jul 24 2020 10:40:27 GMT+0200 (Mitteleuropäische Sommerzeit),1595580027970,13.710916666666666,main,77
1639,,3310,59,stimuli/sounds/car_label_female.mp3,,-,correct,Graduated College,1595580850625,yes,156,female,car,ford,q,p,q,german,match,1,no,stimuli/images/car_ford_1.jpg,yes,,car,female,label,Fri Jul 24 2020 10:40:27 GMT+0200 (Mitteleuropäische Sommerzeit),1595580027970,13.710916666666666,main,78
1639,,3266,59,stimuli/sounds/typing_sound_typewriter.mp3,,congruent,correct,Graduated College,1595580850625,yes,156,female,typing,typewriter,q,p,q,german,match,1,no,stimuli/images/typing_typewriter_1.jpg,yes,,typing,typewriter,sound,Fri Jul 24 2020 10:40:27 GMT+0200 (Mitteleuropäische Sommerzeit),1595580027970,13.710916666666666,main,79
1639,,3188,59,stimuli/sounds/dog_label_female.mp3,,-,correct,Graduated College,1595580850625,yes,156,female,dog,rottweiler,q,p,q,german,match,1,no,stimuli/images/dog_rottweiler_1.jpg,yes,,dog,female,label,Fri Jul 24 2020 10:40:27 GMT+0200 (Mitteleuropäische Sommerzeit),1595580027970,13.710916666666666,main,80
1639,,3196,59,stimuli/sounds/instrument_label_female.mp3,,-,correct,Graduated College,1595580850625,yes,156,female,instrument,violin,q,p,q,german,match,2,no,stimuli/images/instrument_violin_2.jpg,yes,,instrument,female,label,Fri Jul 24 2020 10:40:27 GMT+0200 (Mitteleuropäische Sommerzeit),1595580027970,13.710916666666666,main,81
1639,,2906,59,stimuli/sounds/car_label_male.mp3,,-,incorrect,Graduated College,1595580850625,yes,156,female,car,v8,q,p,p,german,match,1,no,stimuli/images/car_v8_1.jpg,yes,,car,male,label,Fri Jul 24 2020 10:40:27 GMT+0200 (Mitteleuropäische Sommerzeit),1595580027970,13.710916666666666,main,82
1639,,3153,59,stimuli/sounds/dog_label_male.mp3,,-,correct,Graduated College,1595580850625,yes,156,female,dog,chihuahua,q,p,q,german,match,2,no,stimuli/images/dog_chihuahua_2.jpg,yes,,dog,male,label,Fri Jul 24 2020 10:40:27 GMT+0200 (Mitteleuropäische Sommerzeit),1595580027970,13.710916666666666,main,83
1639,,4622,59,stimuli/sounds/dog_sound_rottweiler.mp3,,-,correct,Graduated College,1595580850625,no,156,female,typing,keyboard,q,p,p,german,mismatch,1,no,stimuli/images/typing_keyboard_1.jpg,yes,,dog,rottweiler,sound,Fri Jul 24 2020 10:40:27 GMT+0200 (Mitteleuropäische Sommerzeit),1595580027970,13.710916666666666,main,84
1639,,3933,59,stimuli/sounds/typing_sound_keyboard.mp3,,-,correct,Graduated College,1595580850625,no,156,female,bird,robin,q,p,p,german,mismatch,2,no,stimuli/images/bird_robin_2.jpg,yes,,typing,keyboard,sound,Fri Jul 24 2020 10:40:27 GMT+0200 (Mitteleuropäische Sommerzeit),1595580027970,13.710916666666666,main,85
1639,,4218,59,stimuli/sounds/typing_label_female.mp3,,-,correct,Graduated College,1595580850625,yes,156,female,typing,keyboard,q,p,q,german,match,1,no,stimuli/images/typing_keyboard_1.jpg,yes,,typing,female,label,Fri Jul 24 2020 10:40:27 GMT+0200 (Mitteleuropäische Sommerzeit),1595580027970,13.710916666666666,main,86
1639,,3339,59,stimuli/sounds/instrument_label_male.mp3,,-,correct,Graduated College,1595580850625,no,156,female,dog,rottweiler,q,p,p,german,mismatch,2,no,stimuli/images/dog_rottweiler_2.jpg,yes,,instrument,male,label,Fri Jul 24 2020 10:40:27 GMT+0200 (Mitteleuropäische Sommerzeit),1595580027970,13.710916666666666,main,87
1639,,3020,59,stimuli/sounds/bird_label_male.mp3,,-,correct,Graduated College,1595580850625,yes,156,female,bird,seagull,q,p,q,german,match,2,no,stimuli/images/bird_seagull_2.jpg,yes,,bird,male,label,Fri Jul 24 2020 10:40:27 GMT+0200 (Mitteleuropäische Sommerzeit),1595580027970,13.710916666666666,main,88
1639,,3405,59,stimuli/sounds/car_sound_v8.mp3,,-,correct,Graduated College,1595580850625,no,156,female,phone,rotary,q,p,p,german,mismatch,1,no,stimuli/images/phone_rotary_1.jpg,yes,,car,v8,sound,Fri Jul 24 2020 10:40:27 GMT+0200 (Mitteleuropäische Sommerzeit),1595580027970,13.710916666666666,main,89
1639,,3153,59,stimuli/sounds/typing_sound_typewriter.mp3,,-,correct,Graduated College,1595580850625,no,156,female,instrument,violin,q,p,p,german,mismatch,1,no,stimuli/images/instrument_violin_1.jpg,yes,,typing,typewriter,sound,Fri Jul 24 2020 10:40:27 GMT+0200 (Mitteleuropäische Sommerzeit),1595580027970,13.710916666666666,main,90
1639,,3344,59,stimuli/sounds/typing_label_male.mp3,,-,correct,Graduated College,1595580850625,yes,156,female,typing,typewriter,q,p,q,german,match,2,no,stimuli/images/typing_typewriter_2.jpg,yes,,typing,male,label,Fri Jul 24 2020 10:40:27 GMT+0200 (Mitteleuropäische Sommerzeit),1595580027970,13.710916666666666,main,91
1639,,2841,59,stimuli/sounds/instrument_sound_cello.mp3,,congruent,correct,Graduated College,1595580850625,yes,156,female,instrument,cello,q,p,q,german,match,2,no,stimuli/images/instrument_cello_2.jpg,yes,,instrument,cello,sound,Fri Jul 24 2020 10:40:27 GMT+0200 (Mitteleuropäische Sommerzeit),1595580027970,13.710916666666666,main,92
1639,,3198,59,stimuli/sounds/typing_label_male.mp3,,-,correct,Graduated College,1595580850625,no,156,female,bird,seagull,q,p,p,german,mismatch,1,no,stimuli/images/bird_seagull_1.jpg,yes,,typing,male,label,Fri Jul 24 2020 10:40:27 GMT+0200 (Mitteleuropäische Sommerzeit),1595580027970,13.710916666666666,main,93
1639,,3251,59,stimuli/sounds/dog_label_male.mp3,,-,correct,Graduated College,1595580850625,no,156,female,bird,robin,q,p,p,german,mismatch,1,no,stimuli/images/bird_robin_1.jpg,yes,,dog,male,label,Fri Jul 24 2020 10:40:27 GMT+0200 (Mitteleuropäische Sommerzeit),1595580027970,13.710916666666666,main,94
1639,,3535,59,stimuli/sounds/dog_sound_rottweiler.mp3,,-,correct,Graduated College,1595580850625,no,156,female,phone,rotary,q,p,p,german,mismatch,2,no,stimuli/images/phone_rotary_2.jpg,yes,,dog,rottweiler,sound,Fri Jul 24 2020 10:40:27 GMT+0200 (Mitteleuropäische Sommerzeit),1595580027970,13.710916666666666,main,95
1639,,3420,59,stimuli/sounds/instrument_label_male.mp3,,-,correct,Graduated College,1595580850625,no,156,female,typing,keyboard,q,p,p,german,mismatch,1,no,stimuli/images/typing_keyboard_1.jpg,yes,,instrument,male,label,Fri Jul 24 2020 10:40:27 GMT+0200 (Mitteleuropäische Sommerzeit),1595580027970,13.710916666666666,main,96
1639,,2922,59,stimuli/sounds/bird_sound_robin.mp3,,congruent,correct,Graduated College,1595580850625,yes,156,female,bird,robin,q,p,q,german,match,2,no,stimuli/images/bird_robin_2.jpg,yes,,bird,robin,sound,Fri Jul 24 2020 10:40:27 GMT+0200 (Mitteleuropäische Sommerzeit),1595580027970,13.710916666666666,main,97
1639,,3496,59,stimuli/sounds/typing_label_female.mp3,,-,correct,Graduated College,1595580850625,no,156,female,car,ford,q,p,p,german,mismatch,2,no,stimuli/images/car_ford_2.jpg,yes,,typing,female,label,Fri Jul 24 2020 10:40:27 GMT+0200 (Mitteleuropäische Sommerzeit),1595580027970,13.710916666666666,main,98
1639,,3563,59,stimuli/sounds/instrument_label_female.mp3,,-,correct,Graduated College,1595580850625,no,156,female,typing,typewriter,q,p,p,german,mismatch,1,no,stimuli/images/typing_typewriter_1.jpg,yes,,instrument,female,label,Fri Jul 24 2020 10:40:27 GMT+0200 (Mitteleuropäische Sommerzeit),1595580027970,13.710916666666666,main,99
1639,,3029,59,stimuli/sounds/phone_label_male.mp3,,-,correct,Graduated College,1595580850625,yes,156,female,phone,smartphone,q,p,q,german,match,2,no,stimuli/images/phone_smartphone_2.jpg,yes,,phone,male,label,Fri Jul 24 2020 10:40:27 GMT+0200 (Mitteleuropäische Sommerzeit),1595580027970,13.710916666666666,main,100
1639,,3134,59,stimuli/sounds/dog_sound_chihuahua.mp3,,-,correct,Graduated College,1595580850625,no,156,female,typing,typewriter,q,p,p,german,mismatch,1,no,stimuli/images/typing_typewriter_1.jpg,yes,,dog,chihuahua,sound,Fri Jul 24 2020 10:40:27 GMT+0200 (Mitteleuropäische Sommerzeit),1595580027970,13.710916666666666,main,101
1639,,3123,59,stimuli/sounds/bird_sound_seagull.mp3,,-,correct,Graduated College,1595580850625,no,156,female,instrument,violin,q,p,p,german,mismatch,2,no,stimuli/images/instrument_violin_2.jpg,yes,,bird,seagull,sound,Fri Jul 24 2020 10:40:27 GMT+0200 (Mitteleuropäische Sommerzeit),1595580027970,13.710916666666666,main,102
1639,,4025,59,stimuli/sounds/instrument_sound_violin.mp3,,congruent,incorrect,Graduated College,1595580850625,yes,156,female,instrument,violin,q,p,p,german,match,2,no,stimuli/images/instrument_violin_2.jpg,yes,,instrument,violin,sound,Fri Jul 24 2020 10:40:27 GMT+0200 (Mitteleuropäische Sommerzeit),1595580027970,13.710916666666666,main,103
1639,,4768,59,stimuli/sounds/dog_sound_chihuahua.mp3,,-,correct,Graduated College,1595580850625,no,156,female,bird,seagull,q,p,p,german,mismatch,2,no,stimuli/images/bird_seagull_2.jpg,yes,,dog,chihuahua,sound,Fri Jul 24 2020 10:40:27 GMT+0200 (Mitteleuropäische Sommerzeit),1595580027970,13.710916666666666,main,104
1639,,3237,59,stimuli/sounds/dog_label_male.mp3,,-,correct,Graduated College,1595580850625,yes,156,female,dog,chihuahua,q,p,q,german,match,1,no,stimuli/images/dog_chihuahua_1.jpg,yes,,dog,male,label,Fri Jul 24 2020 10:40:27 GMT+0200 (Mitteleuropäische Sommerzeit),1595580027970,13.710916666666666,main,105
1639,,3274,59,stimuli/sounds/phone_label_female.mp3,,-,correct,Graduated College,1595580850625,no,156,female,instrument,violin,q,p,p,german,mismatch,2,no,stimuli/images/instrument_violin_2.jpg,yes,,phone,female,label,Fri Jul 24 2020 10:40:27 GMT+0200 (Mitteleuropäische Sommerzeit),1595580027970,13.710916666666666,main,106
1639,,3222,59,stimuli/sounds/car_label_male.mp3,,-,correct,Graduated College,1595580850625,no,156,female,bird,robin,q,p,p,german,mismatch,2,no,stimuli/images/bird_robin_2.jpg,yes,,car,male,label,Fri Jul 24 2020 10:40:27 GMT+0200 (Mitteleuropäische Sommerzeit),1595580027970,13.710916666666666,main,107
1639,,3550,59,stimuli/sounds/car_sound_v8.mp3,,congruent,correct,Graduated College,1595580850625,yes,156,female,car,v8,q,p,q,german,match,2,no,stimuli/images/car_v8_2.jpg,yes,,car,v8,sound,Fri Jul 24 2020 10:40:27 GMT+0200 (Mitteleuropäische Sommerzeit),1595580027970,13.710916666666666,main,108
1639,,2810,59,stimuli/sounds/dog_sound_chihuahua.mp3,,congruent,correct,Graduated College,1595580850625,yes,156,female,dog,chihuahua,q,p,q,german,match,1,no,stimuli/images/dog_chihuahua_1.jpg,yes,,dog,chihuahua,sound,Fri Jul 24 2020 10:40:27 GMT+0200 (Mitteleuropäische Sommerzeit),1595580027970,13.710916666666666,main,109
1639,,3079,59,stimuli/sounds/bird_label_female.mp3,,-,correct,Graduated College,1595580850625,no,156,female,typing,typewriter,q,p,p,german,mismatch,1,no,stimuli/images/typing_typewriter_1.jpg,yes,,bird,female,label,Fri Jul 24 2020 10:40:27 GMT+0200 (Mitteleuropäische Sommerzeit),1595580027970,13.710916666666666,main,110
1639,,4412,59,stimuli/sounds/car_sound_v8.mp3,,-,correct,Graduated College,1595580850625,no,156,female,instrument,violin,q,p,p,german,mismatch,1,no,stimuli/images/instrument_violin_1.jpg,yes,,car,v8,sound,Fri Jul 24 2020 10:40:27 GMT+0200 (Mitteleuropäische Sommerzeit),1595580027970,13.710916666666666,main,111
1639,,2831,59,stimuli/sounds/instrument_sound_cello.mp3,,congruent,correct,Graduated College,1595580850625,yes,156,female,instrument,cello,q,p,q,german,match,2,no,stimuli/images/instrument_cello_2.jpg,yes,,instrument,cello,sound,Fri Jul 24 2020 10:40:27 GMT+0200 (Mitteleuropäische Sommerzeit),1595580027970,13.710916666666666,main,112
1639,,3107,59,stimuli/sounds/instrument_sound_violin.mp3,,-,correct,Graduated College,1595580850625,no,156,female,car,ford,q,p,p,german,mismatch,1,no,stimuli/images/car_ford_1.jpg,yes,,instrument,violin,sound,Fri Jul 24 2020 10:40:27 GMT+0200 (Mitteleuropäische Sommerzeit),1595580027970,13.710916666666666,main,113
1639,,3118,59,stimuli/sounds/instrument_label_female.mp3,,-,correct,Graduated College,1595580850625,yes,156,female,instrument,violin,q,p,q,german,match,2,no,stimuli/images/instrument_violin_2.jpg,yes,,instrument,female,label,Fri Jul 24 2020 10:40:27 GMT+0200 (Mitteleuropäische Sommerzeit),1595580027970,13.710916666666666,main,114
1639,,4109,59,stimuli/sounds/phone_label_male.mp3,,-,correct,Graduated College,1595580850625,no,156,female,dog,chihuahua,q,p,p,german,mismatch,2,no,stimuli/images/dog_chihuahua_2.jpg,yes,,phone,male,label,Fri Jul 24 2020 10:40:27 GMT+0200 (Mitteleuropäische Sommerzeit),1595580027970,13.710916666666666,main,115
1639,,2975,59,stimuli/sounds/bird_label_female.mp3,,-,correct,Graduated College,1595580850625,yes,156,female,bird,robin,q,p,q,german,match,2,no,stimuli/images/bird_robin_2.jpg,yes,,bird,female,label,Fri Jul 24 2020 10:40:27 GMT+0200 (Mitteleuropäische Sommerzeit),1595580027970,13.710916666666666,main,116
1639,,2887,59,stimuli/sounds/bird_label_male.mp3,,-,correct,Graduated College,1595580850625,yes,156,female,bird,robin,q,p,q,german,match,2,no,stimuli/images/bird_robin_2.jpg,yes,,bird,male,label,Fri Jul 24 2020 10:40:27 GMT+0200 (Mitteleuropäische Sommerzeit),1595580027970,13.710916666666666,main,117
1639,,3281,59,stimuli/sounds/car_sound_ford.mp3,,-,correct,Graduated College,1595580850625,no,156,female,typing,keyboard,q,p,p,german,mismatch,2,no,stimuli/images/typing_keyboard_2.jpg,yes,,car,ford,sound,Fri Jul 24 2020 10:40:27 GMT+0200 (Mitteleuropäische Sommerzeit),1595580027970,13.710916666666666,main,118
1639,,3338,59,stimuli/sounds/bird_label_female.mp3,,-,correct,Graduated College,1595580850625,no,156,female,instrument,cello,q,p,p,german,mismatch,1,no,stimuli/images/instrument_cello_1.jpg,yes,,bird,female,label,Fri Jul 24 2020 10:40:27 GMT+0200 (Mitteleuropäische Sommerzeit),1595580027970,13.710916666666666,main,119
1639,,3344,59,stimuli/sounds/dog_sound_rottweiler.mp3,,-,correct,Graduated College,1595580850625,no,156,female,typing,keyboard,q,p,p,german,mismatch,2,no,stimuli/images/typing_keyboard_2.jpg,yes,,dog,rottweiler,sound,Fri Jul 24 2020 10:40:27 GMT+0200 (Mitteleuropäische Sommerzeit),1595580027970,13.710916666666666,main,120
1639,,3453,59,stimuli/sounds/instrument_sound_violin.mp3,,-,correct,Graduated College,1595580850625,no,156,female,dog,chihuahua,q,p,p,german,mismatch,2,no,stimuli/images/dog_chihuahua_2.jpg,yes,,instrument,violin,sound,Fri Jul 24 2020 10:40:27 GMT+0200 (Mitteleuropäische Sommerzeit),1595580027970,13.710916666666666,main,121
1639,,3177,59,stimuli/sounds/car_sound_ford.mp3,,-,correct,Graduated College,1595580850625,no,156,female,dog,rottweiler,q,p,p,german,mismatch,1,no,stimuli/images/dog_rottweiler_1.jpg,yes,,car,ford,sound,Fri Jul 24 2020 10:40:27 GMT+0200 (Mitteleuropäische Sommerzeit),1595580027970,13.710916666666666,main,122
1639,,3330,59,stimuli/sounds/instrument_sound_violin.mp3,,incongruent,correct,Graduated College,1595580850625,yes,156,female,instrument,cello,q,p,q,german,match,2,no,stimuli/images/instrument_cello_2.jpg,yes,,instrument,violin,sound,Fri Jul 24 2020 10:40:27 GMT+0200 (Mitteleuropäische Sommerzeit),1595580027970,13.710916666666666,main,123
1639,,3271,59,stimuli/sounds/car_label_female.mp3,,-,correct,Graduated College,1595580850625,no,156,female,instrument,violin,q,p,p,german,mismatch,1,no,stimuli/images/instrument_violin_1.jpg,yes,,car,female,label,Fri Jul 24 2020 10:40:27 GMT+0200 (Mitteleuropäische Sommerzeit),1595580027970,13.710916666666666,main,124
1639,,3332,59,stimuli/sounds/car_label_female.mp3,,-,correct,Graduated College,1595580850625,yes,156,female,car,v8,q,p,q,german,match,1,no,stimuli/images/car_v8_1.jpg,yes,,car,female,label,Fri Jul 24 2020 10:40:27 GMT+0200 (Mitteleuropäische Sommerzeit),1595580027970,13.710916666666666,main,125
1639,,2986,59,stimuli/sounds/phone_label_female.mp3,,-,correct,Graduated College,1595580850625,no,156,female,dog,rottweiler,q,p,p,german,mismatch,2,no,stimuli/images/dog_rottweiler_2.jpg,yes,,phone,female,label,Fri Jul 24 2020 10:40:27 GMT+0200 (Mitteleuropäische Sommerzeit),1595580027970,13.710916666666666,main,126
1639,,3185,59,stimuli/sounds/dog_sound_chihuahua.mp3,,-,correct,Graduated College,1595580850625,no,156,female,typing,typewriter,q,p,p,german,mismatch,1,no,stimuli/images/typing_typewriter_1.jpg,yes,,dog,chihuahua,sound,Fri Jul 24 2020 10:40:27 GMT+0200 (Mitteleuropäische Sommerzeit),1595580027970,13.710916666666666,main,127
1639,,3042,59,stimuli/sounds/dog_sound_rottweiler.mp3,,incongruent,correct,Graduated College,1595580850625,yes,156,female,dog,chihuahua,q,p,q,german,match,1,no,stimuli/images/dog_chihuahua_1.jpg,yes,,dog,rottweiler,sound,Fri Jul 24 2020 10:40:27 GMT+0200 (Mitteleuropäische Sommerzeit),1595580027970,13.710916666666666,main,128
1639,,2979,59,stimuli/sounds/dog_label_male.mp3,,-,correct,Graduated College,1595580850625,yes,156,female,dog,chihuahua,q,p,q,german,match,2,no,stimuli/images/dog_chihuahua_2.jpg,yes,,dog,male,label,Fri Jul 24 2020 10:40:27 GMT+0200 (Mitteleuropäische Sommerzeit),1595580027970,13.710916666666666,main,129
1639,,3001,59,stimuli/sounds/dog_label_female.mp3,,-,correct,Graduated College,1595580850625,no,156,female,instrument,violin,q,p,p,german,mismatch,1,no,stimuli/images/instrument_violin_1.jpg,yes,,dog,female,label,Fri Jul 24 2020 10:40:27 GMT+0200 (Mitteleuropäische Sommerzeit),1595580027970,13.710916666666666,main,130
1639,,4085,59,stimuli/sounds/car_sound_ford.mp3,,congruent,correct,Graduated College,1595580850625,yes,156,female,car,ford,q,p,q,german,match,2,no,stimuli/images/car_ford_2.jpg,yes,,car,ford,sound,Fri Jul 24 2020 10:40:27 GMT+0200 (Mitteleuropäische Sommerzeit),1595580027970,13.710916666666666,main,131
1639,,3416,59,stimuli/sounds/typing_sound_keyboard.mp3,,-,correct,Graduated College,1595580850625,no,156,female,instrument,violin,q,p,p,german,mismatch,1,no,stimuli/images/instrument_violin_1.jpg,yes,,typing,keyboard,sound,Fri Jul 24 2020 10:40:27 GMT+0200 (Mitteleuropäische Sommerzeit),1595580027970,13.710916666666666,main,132
1639,,2955,59,stimuli/sounds/instrument_sound_cello.mp3,,congruent,correct,Graduated College,1595580850625,yes,156,female,instrument,cello,q,p,q,german,match,1,no,stimuli/images/instrument_cello_1.jpg,yes,,instrument,cello,sound,Fri Jul 24 2020 10:40:27 GMT+0200 (Mitteleuropäische Sommerzeit),1595580027970,13.710916666666666,main,133
1639,,3511,59,stimuli/sounds/phone_label_male.mp3,,-,correct,Graduated College,1595580850625,no,156,female,typing,typewriter,q,p,p,german,mismatch,1,no,stimuli/images/typing_typewriter_1.jpg,yes,,phone,male,label,Fri Jul 24 2020 10:40:27 GMT+0200 (Mitteleuropäische Sommerzeit),1595580027970,13.710916666666666,main,134
1639,,3426,59,stimuli/sounds/car_sound_ford.mp3,,-,correct,Graduated College,1595580850625,no,156,female,dog,rottweiler,q,p,p,german,mismatch,2,no,stimuli/images/dog_rottweiler_2.jpg,yes,,car,ford,sound,Fri Jul 24 2020 10:40:27 GMT+0200 (Mitteleuropäische Sommerzeit),1595580027970,13.710916666666666,main,135
1639,,3241,59,stimuli/sounds/car_sound_ford.mp3,,congruent,correct,Graduated College,1595580850625,yes,156,female,car,ford,q,p,q,german,match,1,no,stimuli/images/car_ford_1.jpg,yes,,car,ford,sound,Fri Jul 24 2020 10:40:27 GMT+0200 (Mitteleuropäische Sommerzeit),1595580027970,13.710916666666666,main,136
1639,,3420,59,stimuli/sounds/typing_label_male.mp3,,-,correct,Graduated College,1595580850625,yes,156,female,typing,keyboard,q,p,q,german,match,1,no,stimuli/images/typing_keyboard_1.jpg,yes,,typing,male,label,Fri Jul 24 2020 10:40:27 GMT+0200 (Mitteleuropäische Sommerzeit),1595580027970,13.710916666666666,main,137
1639,,3039,59,stimuli/sounds/bird_sound_seagull.mp3,,-,correct,Graduated College,1595580850625,no,156,female,car,ford,q,p,p,german,mismatch,2,no,stimuli/images/car_ford_2.jpg,yes,,bird,seagull,sound,Fri Jul 24 2020 10:40:27 GMT+0200 (Mitteleuropäische Sommerzeit),1595580027970,13.710916666666666,main,138
1639,,2784,59,stimuli/sounds/bird_label_female.mp3,,-,correct,Graduated College,1595580850625,yes,156,female,bird,seagull,q,p,q,german,match,2,no,stimuli/images/bird_seagull_2.jpg,yes,,bird,female,label,Fri Jul 24 2020 10:40:27 GMT+0200 (Mitteleuropäische Sommerzeit),1595580027970,13.710916666666666,main,139
1639,,2914,59,stimuli/sounds/dog_sound_rottweiler.mp3,,incongruent,correct,Graduated College,1595580850625,yes,156,female,dog,chihuahua,q,p,q,german,match,1,no,stimuli/images/dog_chihuahua_1.jpg,yes,,dog,rottweiler,sound,Fri Jul 24 2020 10:40:27 GMT+0200 (Mitteleuropäische Sommerzeit),1595580027970,13.710916666666666,main,140
1639,,3939,59,stimuli/sounds/typing_label_female.mp3,,-,correct,Graduated College,1595580850625,no,156,female,phone,smartphone,q,p,p,german,mismatch,1,no,stimuli/images/phone_smartphone_1.jpg,yes,,typing,female,label,Fri Jul 24 2020 10:40:27 GMT+0200 (Mitteleuropäische Sommerzeit),1595580027970,13.710916666666666,main,141
1639,,3889,59,stimuli/sounds/typing_sound_keyboard.mp3,,-,correct,Graduated College,1595580850625,no,156,female,instrument,violin,q,p,p,german,mismatch,1,no,stimuli/images/instrument_violin_1.jpg,yes,,typing,keyboard,sound,Fri Jul 24 2020 10:40:27 GMT+0200 (Mitteleuropäische Sommerzeit),1595580027970,13.710916666666666,main,142
1639,,3370,59,stimuli/sounds/phone_label_male.mp3,,-,correct,Graduated College,1595580850625,yes,156,female,phone,rotary,q,p,q,german,match,1,no,stimuli/images/phone_rotary_1.jpg,yes,,phone,male,label,Fri Jul 24 2020 10:40:27 GMT+0200 (Mitteleuropäische Sommerzeit),1595580027970,13.710916666666666,main,143
1639,,2779,59,stimuli/sounds/phone_sound_smartphone.mp3,,congruent,correct,Graduated College,1595580850625,yes,156,female,phone,smartphone,q,p,q,german,match,2,no,stimuli/images/phone_smartphone_2.jpg,yes,,phone,smartphone,sound,Fri Jul 24 2020 10:40:27 GMT+0200 (Mitteleuropäische Sommerzeit),1595580027970,13.710916666666666,main,144
1636,,5102,62,stimuli/sounds/dog_sound_chihuahua.mp3,,congruent,correct,Graduated High School,1595538734046,yes,156,male,dog,chihuahua,q,p,q,german,match,1,no,stimuli/images/dog_chihuahua_1.jpg,yes,,dog,chihuahua,sound,Thu Jul 23 2020 23:02:45 GMT+0200 (Mitteleuropäische Sommerzeit),1595538165028,9.483633333333334,training,1
1636,,7934,62,stimuli/sounds/bird_label_female.mp3,,-,correct,Graduated High School,1595538734046,yes,156,male,bird,seagull,q,p,q,german,match,1,no,stimuli/images/bird_seagull_1.jpg,yes,,bird,female,label,Thu Jul 23 2020 23:02:45 GMT+0200 (Mitteleuropäische Sommerzeit),1595538165028,9.483633333333334,training,2
1636,,5083,62,stimuli/sounds/dog_sound_rottweiler.mp3,,incongruent,correct,Graduated High School,1595538734046,yes,156,male,dog,chihuahua,q,p,q,german,match,1,no,stimuli/images/dog_chihuahua_1.jpg,yes,,dog,rottweiler,sound,Thu Jul 23 2020 23:02:45 GMT+0200 (Mitteleuropäische Sommerzeit),1595538165028,9.483633333333334,training,3
1636,,5303,62,stimuli/sounds/phone_sound_rotary.mp3,,-,correct,Graduated High School,1595538734046,no,156,male,bird,robin,q,p,p,german,mismatch,2,no,stimuli/images/bird_robin_2.jpg,yes,,phone,rotary,sound,Thu Jul 23 2020 23:02:45 GMT+0200 (Mitteleuropäische Sommerzeit),1595538165028,9.483633333333334,training,4
1636,,6101,62,stimuli/sounds/typing_label_male.mp3,,-,correct,Graduated High School,1595538734046,no,156,male,car,ford,q,p,p,german,mismatch,2,no,stimuli/images/car_ford_2.jpg,yes,,typing,male,label,Thu Jul 23 2020 23:02:45 GMT+0200 (Mitteleuropäische Sommerzeit),1595538165028,9.483633333333334,training,5
1636,,8107,62,stimuli/sounds/car_sound_v8.mp3,,-,correct,Graduated High School,1595538734046,no,156,male,phone,smartphone,q,p,p,german,mismatch,2,no,stimuli/images/phone_smartphone_2.jpg,yes,,car,v8,sound,Thu Jul 23 2020 23:02:45 GMT+0200 (Mitteleuropäische Sommerzeit),1595538165028,9.483633333333334,training,6
